Time_s,AccX_raw,AccY_raw,AccZ_raw,GyroX_raw,GyroY_raw,GyroZ_raw,Temp_C
0.000000,-4437,3206,16363,-5741,12261,-6996,24.05
0.053000,-9915,5060,5423,-2261,2831,1581,24.03
0.063000,-7109,-1010,15753,101,193,673,24.03
0.073000,-8497,234,15686,639,910,588,24.03
0.083000,-11222,-1319,15600,519,255,1201,24.05
0.093000,-10117,874,14852,1642,660,2534,24.05
0.103000,-10224,773,14728,1540,2458,1607,24.05
0.113000,-7895,66,15896,296,2954,487,24.05
0.123000,-8728,958,15084,-123,2417,-878,24.04
0.133000,-9468,1576,14826,529,4106,-3118,24.04
0.143000,-9028,833,15398,1285,5067,-5333,24.05
0.153000,-9276,50,15360,1534,5894,-5928,24.05
0.163000,-8876,-537,13921,322,6102,-5017,24.04
0.173000,-7940,-1335,14884,-632,5479,-3328,24.04
0.183000,-7462,-330,14689,-2462,5315,-1851,24.05
0.193000,-7462,362,15097,-3307,6106,-914,24.05
0.203000,-7392,429,15350,-3433,6431,-133,24.05
0.213000,-7910,35,15509,-3624,5941,1369,24.05
0.223000,-7807,966,15777,-3796,6442,2743,24.05
0.233000,-7963,1374,16328,-3582,7384,2628,24.05
0.243000,-8594,891,15607,-3135,8064,2451,24.03
0.253000,-11858,500,11744,1161,4182,1538,24.08
0.263000,-14837,-6241,6034,714,-265,2020,24.08
0.273000,-10777,-1070,12852,2632,1239,1729,24.03
0.283000,-11065,-130,11786,4043,513,-91,24.03
0.293000,-11037,-1471,11288,4192,-215,-1858,24.02
0.303000,-10881,-1919,12673,2788,-967,-2092,24.02
0.313000,-10748,-1765,11808,1092,-1501,-831,24.06
0.323000,-10281,-1265,13362,-281,-849,561,24.06
0.334000,-10554,145,13820,-712,553,722,24.06
0.344000,-10370,420,13973,-670,885,-361,24.06
0.354000,-10172,143,14351,-727,1148,-985,24.06
0.364000,-9984,843,14789,-1008,2049,-1649,24.06
0.374000,-9971,384,14599,-378,3304,-2704,24.01
0.384000,-9665,-61,13757,-255,4710,-2705,24.01
0.394000,-9762,-259,12527,-221,4092,-3002,24.06
0.404000,-10123,-1006,12159,-245,2575,-3141,24.06
0.414000,-12593,-2826,13644,1247,505,-1404,24.05
0.424000,-10395,1899,12240,2447,539,-1525,24.05
0.434000,-10678,385,14167,-297,690,-2406,24.07
0.444000,-9915,1416,13962,-98,408,-3376,24.07
0.454000,-10177,1040,14837,-1736,-124,-4068,24.10
0.464000,-11444,-134,14217,-1911,146,-5184,24.10
0.474000,-11346,369,14453,-666,715,-7198,24.06
0.484000,-11153,-157,14770,111,1050,-7584,24.06
0.494000,-11179,-1213,13949,514,1416,-6305,24.07
0.504000,-11195,-1330,13551,213,1918,-4338,24.07
0.514000,-10477,-1636,12989,135,1605,-2595,24.07
0.524000,-9730,-1295,12159,1,259,-1132,24.07
0.534000,-9527,-973,12309,-842,-2356,442,24.06
0.544000,-9948,-495,12761,-1017,-3738,752,24.06
0.572000,-10689,-599,14274,1554,-1609,-1359,24.07
0.582000,-11512,-2056,12831,3315,-2096,-1140,24.07
0.592000,-10295,-1179,12562,3805,-2573,-1126,24.10
0.602000,-11524,-879,13011,1349,-1742,-2773,24.10
0.612000,-12013,-1268,13767,1695,-191,-4061,24.03
0.622000,-11440,-1464,13316,3296,606,-4033,24.03
0.634000,-10593,-1779,12766,669,323,-3177,24.11
0.644000,-9881,-1506,14154,1244,-48,-2396,24.08
0.654000,-9801,-1037,13237,748,21,-2563,24.08
0.664000,-9835,-1508,14024,1078,-137,-1814,24.04
0.674000,-9235,22,12843,820,-347,-1523,24.04
0.684000,-9949,-1835,14086,926,-617,-96,24.03
0.694000,-9549,-782,13203,1110,-739,358,24.03
0.704000,-10183,-902,13384,747,186,368,24.06
0.714000,-10497,-604,13549,293,1292,-74,24.06
0.724000,-10634,-621,13368,234,1503,-445,24.09
0.734000,-10687,-942,12600,364,658,-795,24.09
0.744000,-10223,-1410,12346,655,-39,-1046,24.08
0.754000,-10113,-752,11949,1037,-839,-1782,24.08
0.764000,-10557,-1133,12639,953,-1559,-2822,24.08
0.774000,-10605,-936,13646,907,-1224,-2966,24.08
0.784000,-10695,-384,14325,879,-725,-2696,24.10
0.794000,-11374,-103,14962,854,-370,-2703,24.10
0.804000,-11649,-450,12948,823,543,-3175,24.11
0.814000,-10533,-585,14687,-1465,3145,-5013,24.11
0.824000,-8356,1389,15278,-3978,7271,-8736,24.07
0.834000,-7589,616,16300,-7602,10693,-12304,24.07
0.844000,-8546,-1287,15017,-10461,14376,-12791,24.08
0.854000,-9754,-2861,13207,-12439,15985,-9468,24.08
0.864000,-10096,-3593,15222,-14759,16561,-4479,24.05
0.874000,-7709,-11376,19768,-26535,21078,5277,24.05
0.884000,-9915,-9758,8489,-32764,24175,18791,24.05
0.894000,-15407,596,7865,-32764,22233,20029,24.05
0.904000,-17543,4229,2318,-24717,13405,11417,24.10
0.914000,-19150,2057,4073,-6636,2563,241,24.10
0.926000,-17818,-3953,7932,1881,-2,-4858,24.12
0.936000,-16533,-4682,9735,2308,988,-4196,24.06
0.946000,-16120,-3303,10082,2694,1691,-5064,24.06
0.956000,-15844,-2771,10660,4733,3758,-8000,24.11
0.966000,-14671,-4165,10175,5337,5719,-9970,24.11
0.976000,-12620,-6151,9269,4328,6059,-9372,24.06
0.986000,-11161,-7031,8820,808,4951,-6276,24.06
0.996000,-10242,-6605,8417,-3456,3544,-1574,24.07
1.006000,-11571,-5156,7936,-5075,1706,-355,24.07
1.016000,-13409,-3764,7682,-4895,188,-492,24.13
1.026000,-14462,-4028,7878,-3087,-1304,-1519,24.13
1.036000,-15194,-5044,8018,-583,-2648,-1975,24.05
1.076000,-13961,-4040,9138,2271,-6085,643,24.14
1.101000,-12806,-4707,7459,7980,-9556,-3550,24.07
1.111000,-11629,-5248,8061,8188,-10460,-2595,24.07
1.121000,-10910,-5024,8684,5904,-11366,-791,24.07
1.131000,-10863,-4779,9360,3670,-12026,643,24.10
1.151000,-11386,-3954,10471,3324,-12089,-761,24.05
1.161000,-11076,-4717,11494,4067,-11264,-829,24.05
1.171000,-10331,-6006,10810,3425,-10041,34,24.03
1.189000,-9244,-5782,10656,-856,-12930,4529,24.08
1.199000,-11453,-4694,11160,955,-12952,4219,24.08
1.209000,-12565,-4399,12187,3632,-10314,2767,24.07
1.226000,-7970,-6103,25896,-7533,3644,7866,24.07
1.236000,-12193,3230,14773,-3170,9156,575,24.07
1.246000,-11005,-2524,9293,820,5628,-2923,24.09
1.264000,-10321,-3854,9499,1586,-213,-2477,24.09
1.274000,-10895,-3821,10243,3222,-1499,-3268,24.09
1.285000,-10557,-5200,10279,3256,-2032,-3070,24.05
1.295000,-10231,-5917,10812,1501,-4833,-2084,24.05
1.305000,-10261,-6142,11585,-1866,-7889,-830,24.07
1.315000,-10961,-5194,11763,-3975,-7898,-91,24.07
1.325000,-10867,-4829,9902,-2761,-3530,3755,24.07
1.338000,-11605,-2166,10398,2805,-128,738,24.07
1.348000,-11688,-3204,11222,5851,2072,-2567,24.07
1.358000,-10940,-4517,11818,6348,3298,-4599,24.07
1.376000,-10687,-4864,11560,4780,2053,-4799,24.10
1.386000,-10910,-4522,12224,3991,1900,-4312,24.11
1.396000,-10937,-4226,12430,3203,929,-4044,24.11
1.413000,-11457,-4140,13567,2732,381,-3615,24.12
1.423000,-11528,-3101,11811,3532,-509,-4285,24.14
1.433000,-10799,-2135,11117,6913,-3083,-6229,24.14
1.451000,-9905,-3449,14034,11251,-4359,-7815,24.07
1.461000,-9797,-4165,14910,8655,-2217,-6808,24.10
1.471000,-10182,-4525,14694,4676,105,-5431,24.10
1.488000,-10276,-5808,11958,984,1858,-2433,24.10
1.498000,-10684,-4719,11139,921,1319,-1940,24.10
1.526000,-10751,-4023,12248,2143,1558,-2378,24.10
1.536000,-10328,-4050,12715,2054,1900,-2855,24.10
1.546000,-10229,-3523,13144,1805,2161,-3090,24.07
1.564000,-10523,-3605,12852,1315,2548,-3438,24.12
1.574000,-10729,-3371,12881,1230,3043,-3841,24.12
1.584000,-10762,-3645,12869,791,3277,-4271,24.10
1.601000,-10903,-5295,11511,-120,2463,-3060,24.12
1.627000,-12014,-4402,12360,1990,-630,-2134,24.16
1.637000,-11086,-4766,12839,395,-225,-2078,24.14
1.647000,-10986,-4888,13225,-537,1583,-2460,24.14
1.659000,-11336,-4953,12629,-1603,4183,-2199,24.10
1.676000,-11787,-4699,11548,-2007,5482,-2174,24.11
1.686000,-11462,-4857,11649,-1604,5389,-1967,24.11
1.696000,-11099,-4771,11454,-1067,5207,-1824,24.08
1.713000,-11593,-4451,12273,-1653,4565,-1832,24.11
1.723000,-11718,-4921,12086,-2505,4355,-1352,24.11
1.733000,-11715,-4880,10788,-2539,3831,-1180,24.11
1.751000,-11162,-4734,9959,-938,919,-2342,24.08
1.761000,-11196,-5134,10622,-98,40,-2377,24.13
1.771000,-11488,-5155,11154,112,-241,-2037,24.13
1.788000,-11871,-5378,10890,-102,353,-1583,24.13
1.798000,-11700,-5351,10679,144,147,-1406,24.12
1.808000,-11889,-5129,11083,84,347,-1379,24.12
1.826000,-11881,-5220,10985,-330,112,-1577,24.14
1.836000,-11890,-5449,10677,-277,55,-1594,24.12
1.846000,-11832,-5675,10435,-96,271,-1780,24.12
1.863000,-11765,-5531,10897,234,86,-1923,24.08
1.873000,-11266,-5248,10454,275,-544,-1972,24.10
1.883000,-11090,-5558,10055,873,-1836,-1986,24.10
1.902000,-11314,-6024,11104,1789,-2511,-1345,24.11
1.912000,-11556,-5719,11098,1322,-1340,-1099,24.11
1.922000,-11679,-5869,10958,901,-669,-910,24.11
1.939000,-11567,-5840,11481,278,181,-1179,24.14
1.949000,-11529,-6111,11779,-401,1342,-943,24.13
1.959000,-11642,-6247,11629,-1237,2355,-462,24.13
1.976000,-11769,-5965,9866,-1888,2912,-247,24.14
1.986000,-11655,-5892,9701,-1474,2499,-566,24.14
1.996000,-11751,-5466,9775,-434,1547,-1018,24.12
2.013000,-11838,-5879,10490,560,-177,-932,24.13
2.023000,-12037,-5943,10556,432,369,-682,24.13
2.033000,-11949,-6001,10762,184,891,-446,24.14
2.051000,-11984,-5965,10480,-339,656,-159,24.16
2.061000,-11898,-5915,10454,-452,152,-34,24.16
2.071000,-11826,-5926,10346,-580,-113,97,24.10
2.089000,-12110,-5900,10241,-641,106,95,24.10
2.099000,-11845,-5975,10458,-663,345,209,24.10
2.109000,-11953,-5749,10183,-747,265,59,24.13
2.126000,-11764,-6079,10039,-152,176,-241,24.10
2.153000,-11737,-5821,10649,-594,1015,-14,24.12
2.163000,-11915,-5754,10298,-766,1349,-123,24.10
2.173000,-12087,-5777,10043,-623,808,-358,24.10
2.183000,-12333,-5849,10049,-383,602,-465,24.09
2.200000,-12687,-5850,10200,-466,237,-347,24.12
2.210000,-12791,-5785,10095,-399,-85,-436,24.12
2.220000,-12432,-5872,9972,-252,-223,-851,24.12
2.238000,-12205,-6383,9824,-127,-188,-1538,24.12
2.248000,-12348,-6062,9696,13,-490,-2120,24.16
2.258000,-12357,-6039,9625,266,-1176,-2683,24.16
2.277000,-11866,-6683,9977,627,-1381,-3377,24.14
2.287000,-12147,-6675,10158,751,-1187,-2901,24.10
2.297000,-12228,-6690,9835,721,-1111,-2263,24.10
2.314000,-12775,-6222,9833,727,-2282,-2159,24.14
2.324000,-12031,-6217,10314,413,-2573,-2415,24.11
2.334000,-11882,-6322,10456,70,-2316,-2685,24.11
2.351000,-11649,-6313,10465,-357,-1888,-3160,24.10
2.361000,-11609,-6356,10037,-39,-2197,-3152,24.13
2.371000,-11450,-6607,9846,585,-2324,-3128,24.13
2.389000,-11169,-7131,10385,700,-1496,-2460,24.14
2.399000,-11314,-7001,10832,434,-1134,-2006,24.11
2.409000,-11155,-6785,10847,141,-667,-1977,24.11
2.426000,-10971,-7300,10630,-4,282,-2044,24.15
2.436000,-11072,-7258,10182,235,293,-1863,24.12
2.446000,-11377,-7200,10000,506,9,-1668,24.12
2.464000,-11626,-7180,10324,556,193,-1061,24.15
2.474000,-11400,-7272,10628,319,637,-433,24.15
2.484000,-11367,-7061,10655,-104,909,-22,24.16
2.501000,-11349,-6830,10130,-484,466,75,24.13
2.511000,-11348,-6765,10037,-224,86,-6,24.13
2.521000,-11021,-7175,10200,-93,-372,62,24.14
2.538000,-11125,-7337,9987,17,-192,920,24.16
2.548000,-11167,-7316,10005,60,-132,1327,24.16
2.558000,-11272,-7212,9905,219,-293,1659,24.16
2.576000,-11212,-7122,9787,845,-1115,2116,24.10
2.586000,-11444,-6921,9696,1025,-1577,2234,24.10
2.596000,-11719,-6897,9758,1028,-1955,2375,24.10
2.613000,-11543,-6138,8118,2016,-3288,2581,24.12
2.623000,-11693,-6515,9285,2175,-4108,2562,24.12
2.633000,-11696,-6056,9573,2868,-5366,2628,24.15
2.652000,-10856,-5628,9807,4300,-7287,3827,24.15
2.678000,-9983,-4578,9131,6446,-11065,5003,24.16
2.688000,-9725,-4508,8738,7495,-13299,5186,24.16
2.698000,-9819,-4593,9368,9066,-15389,5596,24.14
2.708000,-9945,-4781,10736,10168,-16778,6322,24.10
2.726000,-9728,-4646,12829,9353,-17446,8700,24.10
2.736000,-9217,-4296,13361,8616,-17376,9166,24.12
2.746000,-8762,-4008,13225,7823,-17295,9088,24.12
2.764000,-7937,-3898,13122,8380,-18207,7902,24.14
2.774000,-7676,-3445,13578,8400,-18716,6779,24.15
2.784000,-7047,-2858,13604,8032,-19764,5481,24.15
2.801000,-6771,-3311,13649,7313,-22085,5231,24.16
2.811000,-6781,-2888,13396,6522,-22632,5311,24.17
2.821000,-6417,-3314,15120,5366,-22088,5939,24.17
2.839000,-5939,-3026,17000,3198,-17132,6276,24.16
2.849000,-5559,-2693,16739,2908,-15073,5508,24.11
2.859000,-5170,-2417,17204,3130,-13265,4105,24.11
2.876000,-4091,-1225,17578,1292,-11172,588,24.16
2.886000,-4170,-1375,17752,-636,-9261,-512,24.12
2.896000,-4220,-1409,16401,-2128,-8967,-2000,24.12
2.913000,-3928,-2142,16602,-2374,-10231,-1430,24.11
2.923000,-4325,-2382,15902,-2191,-10929,-351,24.18
2.933000,-4102,-1960,14990,-1916,-12694,689,24.18
2.951000,-3493,-2327,15808,-3183,-15619,2018,24.14
2.961000,-2755,-2146,16418,-2943,-15676,2219,24.12
2.971000,-2727,-4262,21015,748,-11168,3469,24.12
2.988000,-1323,-3240,18268,1622,-5080,4401,24.14
2.998000,-1382,-3780,18029,2384,-4777,4390,24.14
3.008000,-1659,-3893,17624,3334,-4212,4742,24.16
3.064000,-1253,-1952,18148,1524,-4850,2848,24.19
3.074000,-1151,-1716,18111,1122,-3640,2355,24.19
3.084000,-974,-1446,17154,353,-3286,1701,24.10
3.101000,-449,-1757,16863,278,-3145,1415,24.15
3.111000,-459,-1647,16436,436,-3173,1445,24.15
3.121000,-706,-1641,16135,-135,-4133,1402,24.22
3.139000,-648,-2434,14989,-979,-5571,1299,24.14
3.150000,-1172,-1608,15593,-79,-6100,864,24.14
3.160000,-1106,-1199,16032,-477,-7442,375,24.12
3.170000,302,-4804,14177,-750,-8806,-146,24.12
3.196000,1781,-1616,17678,1449,-6768,1709,24.16
3.206000,1990,-2021,17771,1181,-4917,2003,24.16
3.216000,1600,-1913,17839,969,-3861,2523,24.13
3.226000,792,-1503,17502,-112,-3891,2508,24.13
3.236000,680,-2187,17124,-943,-5396,3003,24.14
3.251000,218,-1900,17320,-2999,-7369,3896,24.14
3.261000,-27,-1574,18179,-4195,-6841,3519,24.16
3.271000,119,-2256,16865,-5333,-6284,2826,24.16
3.288000,1094,-1908,16790,-3740,-5664,2216,24.17
3.298000,1443,-2530,16579,-3583,-4764,1900,24.18
3.308000,1949,-3084,15922,-1977,-3029,2049,24.18
3.326000,2104,-3245,15976,16,279,1574,24.14
3.336000,1987,-3945,16316,1757,229,2457,24.15
3.346000,1804,-2744,16929,1264,-1504,3368,24.15
3.363000,2778,-2729,16833,624,-4847,4569,24.14
3.373000,2882,-2207,16696,571,-5648,4959,24.17
3.383000,2688,-1649,16770,593,-6219,4906,24.17
3.402000,3010,-867,16678,172,-4401,4026,24.17
3.412000,2804,-412,17159,-500,-3594,3038,24.14
3.422000,3129,-726,17606,-1189,-3270,2198,24.14
3.476000,3531,-3571,17436,426,2208,3996,24.15
3.486000,3864,-3009,16642,1168,1961,5140,24.15
3.496000,3573,-2250,15582,2109,1515,6958,24.17
3.514000,3133,484,12783,1672,2052,7963,24.14
3.524000,3645,-21,15215,2161,1384,7224,24.14
3.534000,6301,1862,18765,-1550,-999,6509,24.17
3.551000,7819,899,20582,-5317,4393,3952,24.15
3.561000,7972,-32,19858,-8061,6185,6540,24.15
3.571000,7041,-382,19511,-10406,8114,10530,24.19
3.589000,3186,607,18145,-14530,10485,14255,24.18
3.599000,1783,133,17124,-13341,10546,13935,24.18
3.609000,590,-2072,15617,-9344,8788,13424,24.19
3.626000,-66,-3704,14725,408,3344,13048,24.17
3.636000,-912,-3607,14886,3750,166,12749,24.17
3.646000,-1193,-2928,15400,4073,-2397,12288,24.16
3.663000,17,-5165,17280,1697,-4652,13667,24.16
3.673000,195,-5174,18554,2380,-3942,16117,24.16
3.683000,-429,-3810,19424,3181,-2547,16587,24.15
3.701000,-1159,-3984,19590,2973,523,16010,24.13
3.724000,-1916,-4067,18520,819,-756,14970,24.16
3.734000,-1741,-4556,17644,-62,-2685,12723,24.16
3.744000,-1855,-5431,16926,-585,-5822,10030,24.16
3.754000,-1453,-6214,16698,-2384,-6504,8841,24.16
3.777000,-1350,-4180,12289,-4269,-8240,5010,24.16
3.787000,-918,-5994,8934,1533,-12708,1802,24.15
3.797000,830,-9338,7969,10129,-18943,580,24.15
3.814000,4509,-8855,10685,20627,-25231,6737,24.18
3.824000,4599,-5601,14025,18620,-24265,12513,24.17
3.834000,3114,-2973,15622,14368,-21789,13549,24.17
3.851000,-530,-2345,15127,10262,-20120,12808,24.15
3.861000,-1075,-1815,15753,9259,-20819,9313,24.14
3.871000,-1482,-255,16436,6680,-21485,5671,24.14
3.889000,-898,277,19110,933,-21429,34,24.18
3.901000,-385,-720,23490,-3151,-19898,-1158,24.16
3.911000,-1073,-566,25574,-5385,-17685,-1317,24.16
3.921000,-1356,-1412,26944,-7218,-14094,-1707,24.16
3.931000,-1731,-1881,27254,-7793,-7113,-1508,24.16
3.941000,-2140,-2044,25623,-8182,1530,-1962,24.16
3.951000,-1994,-3779,23265,-7656,7386,-2169,24.16
3.964000,-1423,-4347,20214,-7128,6239,-2141,24.21
3.974000,-672,-3095,17895,-6329,3438,-2536,24.21
3.984000,-101,-1508,16488,-6730,78,-3331,24.15
4.001000,2053,-1746,13502,-7513,-4612,-4526,24.16
4.011000,2582,-2081,12402,-6504,-7653,-4301,24.16
4.021000,2619,-2767,12036,-4456,-11876,-4380,24.21
4.038000,2119,-3164,12680,-332,-21174,-6551,24.18
4.048000,2460,-2578,14089,2626,-22329,-7660,24.18
4.058000,4248,-2327,15262,4868,-22679,-9092,24.19
4.076000,6754,-3985,18315,8275,-14939,-6250,24.17
4.086000,7615,-3580,15666,4793,-9143,-1062,24.17
4.096000,8813,-2904,12546,-1614,-9005,3428,24.16
4.113000,13422,63,8618,-1728,-19233,-1397,24.17
4.123000,14116,-163,6740,-9506,-26435,-2544,24.17
4.133000,13504,188,7885,-13763,-31579,-4273,24.21
4.152000,13779,-1963,11333,-4056,-26464,-3711,24.18
4.162000,15038,-1400,10496,1272,-19390,-348,24.18
4.189000,18231,-2907,12504,6186,-4206,10005,24.18
4.199000,16826,-1481,16010,7391,3758,14529,24.18
4.209000,14956,53,18408,7741,14149,15204,24.15
4.226000,14749,2626,18667,451,31788,13826,24.15
4.251000,13732,3128,20179,-29162,32764,9806,24.23
4.261000,13763,2583,20346,-32764,32764,10372,24.23
4.273000,15182,3500,19427,-32764,32764,7261,24.19
4.283000,14944,-1046,16377,-32764,32764,3496,24.19
4.293000,12491,-1816,12750,-32764,32764,4456,24.19
4.303000,8741,-1443,8811,-32764,32764,4875,24.19
4.313000,5879,-3047,4803,-32764,32764,2923,24.17
4.323000,3851,-8847,-1018,-32764,32764,-835,24.17
4.339000,2142,-15181,-6824,-32577,32764,1964,24.16
4.349000,1124,-18765,-9837,-20057,30689,5782,24.19
4.359000,-2798,-19485,-9843,-5519,13970,8124,24.19
4.376000,-10568,-15021,-3727,14520,-19844,6795,24.16
4.386000,-11928,-14369,1323,22558,-32764,3803,24.19
4.396000,-9396,-14305,8772,31210,-32764,540,24.19
4.413000,-5978,-12153,18547,32764,-32764,-7448,24.13
4.423000,-4030,-8857,21101,32764,-32764,-10698,24.21
4.433000,5771,-10705,32185,32764,-32764,-12715,24.21
4.451000,3695,-9974,17950,10933,-32764,-3121,24.19
4.461000,1355,-9230,17117,9185,-29377,-4952,24.19
4.471000,1735,-10423,12276,15047,-32026,-9780,24.20
4.488000,2659,-8432,8065,21783,-32764,-17919,24.21
4.498000,6052,-6327,8945,27839,-32764,-22667,24.21
4.508000,8774,-2718,10539,32481,-32764,-28512,24.19
4.527000,14308,1216,10827,32764,-32764,-26190,24.21
4.537000,16142,1924,8548,32764,-32764,-21897,24.21
4.547000,16948,2421,10576,30898,-32764,-18483,24.20
4.601000,15457,1575,15732,-32764,24253,2136,24.18
4.611000,13949,6373,10054,-32764,29965,5487,24.18
4.621000,19839,-5753,17264,-32764,32764,15161,24.17
4.639000,14596,3871,-7449,-32764,29915,8433,24.17
4.651000,18562,-5295,-2458,-29399,32112,21324,24.17
4.661000,15304,-4268,1062,-23409,32700,27156,24.17
4.671000,12069,-2261,3231,-22049,32764,27548,24.17
4.681000,8779,-2231,4533,-22245,31283,26855,24.18
4.691000,6354,-4905,7182,-26119,26471,26817,24.18
4.701000,1946,-7499,9341,-31052,22401,24524,24.20
4.714000,-301,-11052,9785,-32764,13359,18703,24.20
4.724000,-1681,-13564,8350,-32764,5172,16022,24.19
4.734000,-5362,-4770,4735,-27212,-2699,12113,24.19
4.751000,1396,-14156,5180,-14332,-18822,2289,24.21
4.776000,-1015,-15729,9748,17589,-6356,1318,24.23
4.786000,-234,-14592,9445,26617,-6645,1754,24.23
4.796000,732,-12605,11107,28057,-9429,1256,24.15
4.806000,2184,-11050,12347,22432,-13917,-147,24.15
4.826000,3171,-9954,11709,13991,-17587,-3901,24.20
4.836000,4095,-9394,9706,15456,-18440,-3924,24.16
4.846000,5320,-9924,9992,16965,-20631,-3826,24.16
4.863000,2080,-5972,9969,-5953,2490,-14316,24.22
4.873000,3007,-4803,19975,4958,-6446,-23174,24.22
4.883000,1733,-6788,-3958,4288,-7768,-31793,24.22
4.902000,11402,-8704,4444,32764,-21757,-20966,24.18
4.912000,11399,-4307,9966,32764,-28088,-24327,24.19
4.922000,14707,-9803,14017,32574,-27497,-22087,24.19
4.939000,17711,-3154,15148,20322,-21290,-14153,24.16
4.949000,19632,166,15580,13409,-17533,-9647,24.16
4.959000,18243,-47,18286,6846,-18413,-11972,24.16
4.976000,15152,-2325,14712,-1804,-2331,-7276,24.21
4.986000,14095,-1455,13950,-8106,1833,-1350,24.21
4.996000,15438,2186,14190,-13393,11802,7519,24.18
5.014000,15112,4382,9756,-31979,22760,19440,24.19
5.024000,14883,3432,9327,-32764,26645,24859,24.19
5.034000,15858,1606,10492,-32764,31169,30373,24.20
5.051000,8172,-2955,14047,-32764,16315,25920,24.19
5.061000,10779,-5516,9918,-32764,21387,29317,24.19
5.071000,11957,-7996,8427,-32764,18869,30844,24.23
5.089000,7610,-7882,4904,-32350,22392,29766,24.22
5.099000,4856,-8726,3718,-27352,22409,26518,24.22
5.109000,3681,-13791,3486,-21798,19726,27459,24.21
5.126000,-1455,-6855,3335,-3078,14259,17058,24.18
5.136000,-4677,2393,5341,3474,13627,8661,24.18
5.146000,-4318,-9322,6752,6895,14097,-8145,24.18
5.163000,-5471,-21019,4991,-1134,-672,814,24.19
5.173000,-7766,-22070,5507,-4127,-9080,-1684,24.19
5.183000,-9067,-23634,7035,1533,-18383,-9929,24.22
5.201000,-7289,-16593,5387,32498,-27181,-32764,24.22
5.211000,-4102,-18392,5780,32764,-31922,-32764,24.22
5.221000,-133,-18529,7023,32764,-32764,-32764,24.22
5.238000,5569,-8057,11165,32764,-32764,-32764,24.20
5.248000,5749,-2065,8857,32764,-32764,-32764,24.23
5.258000,7706,439,6345,32764,-32764,-32764,24.23
5.277000,9043,4104,11007,32764,-32764,-32764,24.17
5.301000,20669,9811,12951,32764,-31144,-32764,24.23
5.311000,17551,8829,13278,32764,-21534,-32764,24.23
5.321000,15007,6804,11006,32764,-13123,-32764,24.17
5.331000,13069,7157,6624,27883,-7333,-32764,24.17
5.351000,12951,10158,1667,8546,4309,-27104,24.18
5.361000,14815,13197,1800,-2835,7509,-21697,24.19
5.371000,18156,14971,1983,-17585,10562,-11900,24.19
5.381000,16946,14317,1390,-26269,8427,-1127,24.25
5.391000,14698,14005,1465,-32764,4334,8308,24.25
5.401000,13497,13627,1316,-32764,1846,12526,24.21
5.411000,12421,12376,1245,-32764,1679,14581,24.21
5.426000,11628,15120,4763,-32764,5431,13467,24.20
5.436000,11686,16563,7072,-32764,9821,11614,24.20
5.446000,11236,17826,8792,-32764,13414,8472,24.24
5.464000,10246,17668,11274,-32764,14380,889,24.20
5.474000,9578,16451,11968,-32764,13510,-750,24.20
5.484000,8954,14816,11553,-32764,12617,150,24.21
5.501000,8574,11767,7326,-32764,10522,4637,24.23
5.511000,8596,10058,5524,-32764,8890,7418,24.23
5.521000,8524,6830,2479,-32764,5873,9762,24.21
5.539000,7516,-2382,-2299,-32764,-7256,12773,24.22
5.549000,7589,-8169,-1799,-32764,-12511,13543,24.22
5.559000,7911,-13757,76,-32764,-16917,14792,24.21
5.576000,9349,-17963,5146,-23129,-17439,17791,24.21
5.586000,9356,-17489,8645,-9182,-12897,20104,24.21
5.596000,7854,-15459,12587,2895,-6008,19631,24.21
5.613000,5363,-12718,12278,6238,5812,15545,24.20
5.623000,3185,-12839,9007,-3545,1734,10467,24.20
5.652000,4417,-18888,11113,-12418,-16447,-4151,24.19
5.662000,5452,-16231,11404,-6918,-10914,-6868,24.19
5.672000,9073,-17190,9244,-6047,-5039,-10059,24.21
5.726000,11006,-15203,6753,7359,285,-4817,24.20
5.736000,9986,-14262,7153,10991,1072,-7221,24.21
5.746000,10419,-15890,6872,14940,1908,-15101,24.21
5.764000,10138,-18991,8380,24898,1513,-20922,24.24
5.776000,8850,-17950,6843,32056,3831,-21974,24.23
5.786000,7281,-14246,7572,32764,7277,-26701,24.23
5.801000,7794,-11180,7172,32764,12379,-32764,24.20
5.825000,10525,-6895,4989,32764,21213,-32764,24.21
5.835000,9134,-2751,4944,32764,26282,-32764,24.21
5.845000,7918,2657,5895,32764,32596,-32764,24.21
5.855000,6676,8406,8870,32764,32764,-32764,24.19
5.876000,5938,14832,693,32764,24823,-32764,24.24
5.886000,3340,13509,2841,32764,9890,-31184,24.21
5.896000,-260,12544,219,32764,-1659,-20076,24.21
5.913000,-590,14083,-1675,19501,-4750,-11702,24.22
5.923000,-3072,13858,-5829,5892,-9014,-10551,24.22
5.933000,-1884,16222,-6930,-5890,-15466,-10089,24.22
5.951000,1788,19921,-3200,-25134,-26474,-5371,24.22
5.961000,4811,21979,-996,-30056,-28615,-1713,24.22
5.971000,6150,20698,1714,-32764,-24744,677,24.21
5.988000,3239,16323,3225,-32764,-19998,4390,24.23
5.998000,1893,15154,5063,-32764,-17225,8206,24.23
6.008000,830,16601,7504,-32764,-14222,10339,24.24
6.027000,-494,21477,10679,-32764,-7191,10794,24.22
6.037000,1030,23326,8738,-32764,-6231,10332,24.22
6.047000,290,23314,7839,-32764,-8705,8185,24.19
6.064000,-1154,19607,5414,-32764,-12929,5882,24.21
6.074000,-2234,15769,2483,-32764,-18005,8129,24.21
6.084000,-2871,11815,594,-32764,-28689,12897,24.22
6.101000,674,7111,3000,-32764,-32764,15460,24.19
6.111000,2146,4267,5462,-32764,-32764,16900,24.19
6.121000,4036,2275,6192,-32764,-32764,17781,24.25
6.139000,7994,4190,8324,-32764,-32764,17783,24.22
6.149000,7814,2218,8473,-32764,-32764,13337,24.22
6.159000,9051,-1996,7125,-32764,-32648,10675,24.22
6.177000,14778,-11120,-495,-32764,-17618,19224,24.18
6.187000,15866,-11846,-2142,-29903,-14474,22942,24.18
6.197000,13617,-13230,-1392,-13058,-9520,22465,24.22
6.214000,10510,-15736,128,11157,-3053,12034,24.22
6.224000,12921,-15648,3274,22067,-439,5147,24.27
6.234000,16361,-15275,5670,29725,5056,-898,24.27
6.251000,30787,-28223,14138,32764,13223,-15523,24.20
6.261000,16156,-23219,22308,21356,14683,-15898,24.23
6.271000,17300,-9651,9035,13051,24701,-18992,24.23
6.288000,17964,-11492,5051,32764,32764,-27412,24.24
6.298000,17932,-9526,7165,32764,32764,-28869,24.19
6.308000,16924,-9223,9465,32764,32764,-30972,24.19
6.326000,13911,-7661,11901,32764,32764,-32764,24.25
6.351000,8659,-1482,15979,32764,29138,-32764,24.24
6.361000,6442,1584,17278,32764,24163,-32764,24.27
6.371000,4391,3733,16390,32696,20392,-32764,24.27
6.381000,2206,5774,15332,22604,16457,-32764,24.22
6.402000,-6317,10256,12078,2033,6988,-32764,24.24
6.412000,-8840,12762,8019,-6807,156,-28254,24.22
6.422000,-13431,15095,2398,-9019,-11581,-19526,24.22
6.439000,-13680,20967,8605,-8270,-32764,-12941,24.24
6.449000,-8527,21034,13543,-9795,-32764,-10268,24.22
6.459000,-4681,19665,16050,-14541,-32764,-3160,24.22
6.476000,-2573,17018,15400,-26469,-32764,13985,24.28
6.486000,-3107,16381,15028,-29262,-32764,17008,24.28
6.496000,-3394,14651,14932,-30946,-32764,19977,24.22
6.514000,-3595,14023,13341,-32764,-32764,24868,24.24
6.524000,-2821,13927,9814,-32764,-32764,28407,24.24
6.534000,-2294,13253,4860,-32764,-32764,32315,24.26
6.551000,-500,10521,-1098,-32764,-32764,32764,24.25
6.561000,1097,6861,-3321,-32764,-32764,32764,24.25
6.571000,3636,2669,-5090,-27654,-32764,32764,24.23
6.589000,13011,-6621,-1746,-5920,-32764,29792,24.19
6.599000,16501,-10235,21,2019,-30853,25908,24.19
6.609000,17629,-11430,813,5027,-16760,20342,24.26
6.626000,17555,-12708,210,10465,2952,8268,24.25
6.636000,18420,-12244,-499,13418,11246,2449,24.25
6.646000,20819,-11760,-1729,17073,19515,-2066,24.24
6.663000,24794,-11701,-2349,23283,32679,-9132,24.26
6.673000,26065,-12554,-3538,28518,32764,-14376,24.26
6.683000,26446,-13724,-1760,32764,32764,-23464,24.26
6.701000,16915,-12131,2184,32764,32764,-32764,24.26
6.711000,9868,-8467,1981,32764,32764,-32764,24.25
6.721000,4096,-3586,2785,32764,32764,-32764,24.25
6.738000,-2206,4582,9865,32764,32764,-32764,24.21
6.748000,-4753,7256,13512,32764,32764,-32764,24.25
6.758000,-7238,10335,15973,27295,32764,-32764,24.25
6.777000,-10026,18287,13123,18456,32764,-32665,24.25
6.787000,-10102,17687,11619,15515,32022,-25000,24.25
6.797000,-9914,15586,11809,11021,14557,-17025,24.25
6.814000,-9475,12553,16071,483,-11352,-7047,24.28
6.824000,-8742,11936,16327,-6218,-22226,-4191,24.21
6.852000,-3356,11354,14804,-18029,-32764,2347,24.25
6.872000,-2211,10034,13731,-21896,-32764,5969,24.25
6.886000,251,8425,14639,-26331,-32764,5534,24.25
6.896000,1861,6765,13917,-29327,-32764,4777,24.25
6.906000,4547,4706,12634,-30453,-32764,3735,24.25
6.916000,6248,3037,12555,-29340,-32764,2058,24.25
6.926000,6662,1613,12728,-26950,-32764,221,24.24
6.936000,6539,1087,13219,-24384,-32764,-2138,24.24
6.946000,5909,1386,15719,-22997,-32764,-4010,24.24
6.964000,2035,5110,15099,-22851,-32764,-5009,24.23
6.974000,1274,7000,13441,-25617,-32764,-3361,24.23
6.984000,-34,7817,11098,-27529,-32764,-935,24.23
7.001000,-1150,8057,6336,-23218,-32764,409,24.26
7.011000,559,7469,5286,-20198,-32764,-533,24.26
7.021000,3822,6998,4026,-17367,-32764,298,24.25
7.038000,12138,6008,-419,-12251,-32764,8823,24.24
7.048000,14452,4724,-2328,-5858,-29440,12826,24.24
7.058000,15370,2446,-4131,1186,-21728,16466,24.25
7.076000,16870,-1691,-2420,10661,-7984,17652,24.23
7.086000,16752,-2792,-730,11864,-4012,16197,24.23
7.096000,17681,-2289,973,11474,1912,15498,24.27
7.113000,22667,-2313,2155,8982,19959,18817,24.27
7.123000,26271,-4048,1179,8335,30782,23836,24.27
7.133000,29453,-5827,-409,9910,32764,28337,24.24
7.152000,29484,-9836,-1242,14991,32764,16673,24.29
7.162000,29259,-14617,-9,22651,32764,5645,24.29
7.172000,24647,-14081,1909,29150,32764,-6423,24.25
7.189000,9908,-9186,6463,32764,32764,-28649,24.25
7.199000,2197,-6046,10814,32764,32764,-32764,24.21
7.209000,-762,-1220,13738,32764,32764,-32764,24.21
7.264000,-10292,14360,11125,31996,32764,18769,24.24
7.274000,-14363,15092,5765,16980,25730,31224,24.24
7.284000,-16062,15207,7886,-5795,-5509,32764,24.24
7.301000,-12341,13322,11388,-20350,-25333,27839,24.26
7.311000,-8942,10294,11204,-21934,-28875,20361,24.25
7.321000,-5017,7138,9159,-22296,-29683,14509,24.25
7.339000,248,2648,3090,-15873,-32722,5081,24.24
7.349000,690,-2857,6940,-5814,-30536,10777,24.24
7.359000,1915,-2725,9651,3447,-19176,20672,24.24
7.376000,1989,5014,10671,23131,3709,29067,24.26
7.397000,-1718,5649,13680,32757,17547,32695,24.31
7.407000,-1656,8374,17708,23697,17186,32764,24.25
7.417000,-2428,13029,17392,14542,18172,32658,24.25
7.427000,-3298,15587,13597,12489,18083,26104,24.29
7.451000,-2097,11782,13623,20976,13944,8767,24.25
7.461000,-1169,10663,15235,23614,13601,7946,24.25
7.471000,110,10118,17106,23060,13631,9077,24.24
7.488000,-1498,12673,20167,12474,11681,10292,24.26
7.498000,-1622,14572,21220,5834,7604,8030,24.26
7.508000,-1651,15265,23610,-5478,3209,5951,24.29
7.527000,-832,13716,22289,-27491,-2212,8860,24.25
7.537000,-848,13398,20921,-32764,-2714,10693,24.25
7.565000,-2061,9220,14156,-32764,-10415,10224,24.26
7.575000,-688,7063,14254,-32764,-14456,10295,24.26
7.585000,1709,5635,13794,-32764,-18286,10522,24.26
7.601000,4984,2635,15372,-32764,-25839,11737,24.29
7.611000,5045,1206,16977,-32764,-29456,15755,24.29
7.621000,4828,2431,16994,-32764,-32460,20181,24.28
7.639000,4363,3224,15796,-32764,-32764,26799,24.25
7.650000,4280,2082,15827,-32764,-32764,28882,24.25
7.660000,4507,974,15284,-32764,-32764,30111,24.22
7.670000,5604,-1127,15391,-32764,-32764,30079,24.22
7.680000,7420,-4579,16084,-32764,-32764,30317,24.28
7.690000,8747,-10013,16737,-32764,-32764,31919,24.28
7.700000,9355,-11858,17476,-32764,-23066,29539,24.30
7.714000,6532,-14002,11878,-32764,-8536,25618,24.30
7.724000,4457,-14078,8367,-28523,3597,20172,24.27
7.734000,2701,-14228,5472,-11480,14257,13289,24.27
7.751000,955,-9391,757,21089,24927,-2650,24.31
7.761000,3220,-14119,1839,22859,18563,-9949,24.26
7.771000,3389,-11101,403,26023,11306,-11438,24.26
7.788000,4408,-12072,9467,32764,10811,-14806,24.28
7.798000,4740,-11068,10409,32764,12655,-14701,24.28
7.808000,2515,-9335,10314,32764,16283,-17630,24.28
7.826000,2353,-7628,11922,32764,25742,-24935,24.27
7.836000,3631,-6086,12352,32764,26774,-26477,24.31
7.846000,6903,-3792,13854,32764,27231,-23960,24.31
7.863000,11417,940,16253,32764,25547,-4411,24.29
7.873000,7337,10867,14165,32764,23246,6874,24.26
7.883000,4492,15248,12679,32764,21205,17712,24.26
7.902000,4194,22188,7963,20453,-10831,9064,24.28
7.924000,518,16508,19680,-27480,-28788,-7005,24.26
7.934000,5647,11125,21079,-32764,-24108,-3385,24.25
7.944000,6634,7311,17825,-32764,-19851,-1644,24.25
7.954000,6346,2652,16700,-32764,-9294,1533,24.26
7.976000,6683,-895,11056,-30565,1245,11136,24.27
7.986000,5657,-295,9141,-22188,-674,13692,24.27
7.996000,5989,477,10490,-11853,-5130,15276,24.27
8.006000,7945,1750,11416,-4081,-6132,17771,24.27
8.016000,9674,2102,11597,5254,-2993,21245,24.26
8.026000,9275,957,12735,10447,-1082,23093,24.26
8.036000,4576,1526,14901,9669,-1046,19851,24.26
8.051000,6255,2228,18768,8435,-1869,13408,24.24
8.061000,8261,3086,22024,7108,-333,13947,24.24
8.071000,10177,3264,21876,5270,589,18878,24.29
8.089000,7295,3595,21361,-5227,-3896,20074,24.25
8.099000,7369,4024,23053,-14295,-4165,19902,24.25
8.109000,7977,5093,22976,-25345,-1079,21838,24.23
8.126000,8223,5845,18496,-32764,4500,26890,24.25
8.136000,6148,4279,16476,-32764,4951,26015,24.25
8.146000,5154,1956,15599,-32764,7749,27858,24.26
8.163000,3365,-2021,12124,-32764,11585,30289,24.28
8.173000,2107,-975,13018,-32764,12694,25454,24.28
8.183000,1569,-1455,11049,-32764,16483,20521,24.28
8.201000,-260,-9002,5091,-32764,11354,11055,24.26
8.211000,-595,-11498,2227,-32764,8010,5621,24.26
8.221000,-1575,-14708,-441,-27716,-6009,-1202,24.26
8.238000,4484,-12752,1350,2407,-5627,976,24.28
8.248000,5668,-13143,2256,8604,-5705,5536,24.26
8.258000,3933,-12545,4063,16001,-6815,8752,24.26
8.276000,1348,-13726,9360,25598,-3911,6426,24.29
8.286000,18,-13955,9615,29741,-1550,4780,24.25
8.296000,-1976,-14074,8788,32764,-1377,1919,24.25
8.314000,-3695,-13440,7358,32764,-7497,-3189,24.30
8.324000,-2929,-11582,9767,32764,-12038,-8572,24.26
8.334000,-941,-8891,10880,32764,-17153,-16190,24.26
8.389000,10674,8990,22928,32764,-6008,-17656,24.26
8.399000,11067,8895,23645,30132,-1832,-15676,24.27
8.409000,10214,8594,24842,14751,6876,-7513,24.27
8.426000,9537,7419,21844,-13657,12290,1640,24.25
8.448000,6223,3023,18003,-29071,7544,10303,24.28
8.458000,6189,2092,17457,-29572,4543,11287,24.25
8.468000,6152,1609,16436,-29532,3303,11653,24.25
8.478000,6146,1657,14244,-29093,3066,12101,24.33
8.488000,5909,416,12804,-24337,4773,9190,24.33
8.501000,3793,-145,11322,-20134,4436,8471,24.29
8.511000,3394,-417,11841,-17925,4357,9434,24.29
8.521000,3633,-1201,12064,-14643,4380,10031,24.30
8.539000,4227,-2505,14290,-5570,2769,9993,24.32
8.549000,3266,-3087,15155,-364,243,9580,24.32
8.559000,1983,-3041,16431,3763,-2802,9182,24.27
8.576000,1850,-2620,18341,5127,-5831,8488,24.26
8.586000,2543,-2345,18758,2347,-5603,7740,24.26
8.596000,3121,-2811,19495,-1346,-4678,6607,24.27
8.613000,3031,-4226,20107,-10549,-1153,5877,24.26
8.623000,2253,-4314,19945,-15027,1221,4516,24.26
8.633000,1680,-4231,19460,-20595,2664,2606,24.29
8.651000,1939,-3411,16998,-29078,1417,-523,24.31
8.661000,3124,-3209,14727,-31052,729,-75,24.31
8.671000,4507,-3222,13306,-32169,822,1522,24.31
8.689000,4936,-6748,7988,-32596,4295,2266,24.31
8.699000,5882,-6075,13193,-29496,5706,3549,24.27
8.709000,4886,-8913,9815,-17704,4529,5456,24.27
8.727000,2409,-9888,10005,-2703,-2694,4157,24.30
8.737000,2352,-9925,10373,6265,-6158,2164,24.30
8.747000,2730,-10444,10772,14005,-7693,725,24.30
8.757000,3096,-9835,11610,19373,-9084,-270,24.29
8.767000,3448,-8908,13496,21127,-8310,-1663,24.29
8.777000,4108,-8041,14356,20461,-5945,-2966,24.26
8.787000,4852,-7919,14017,18036,-2554,-2762,24.26
8.801000,4175,-7072,13600,17512,-194,-1178,24.27
8.811000,4381,-6835,13189,18563,936,231,24.29
8.821000,4065,-6466,13004,19915,2105,3010,24.29
8.839000,2626,-5067,15569,22472,-2493,6650,24.29
8.849000,3065,-4894,16917,25469,-5296,6573,24.32
8.859000,4237,-4101,16755,28429,-7278,7542,24.32
8.876000,5578,-1602,17676,27288,-5407,8835,24.27
8.886000,6406,-1456,18915,23302,-22,6379,24.30
8.896000,4294,120,18164,14334,7473,3319,24.30
8.914000,2304,-1274,19678,1360,13433,2257,24.29
8.924000,1526,-1235,20077,-1595,12631,1524,24.29
8.934000,1777,-887,20271,-4473,11302,608,24.30
8.951000,1495,-1559,17253,-9025,7521,316,24.33
8.975000,1648,-4687,13843,-780,2732,3007,24.30
8.985000,2782,-6330,13247,5430,-2609,5913,24.28
8.995000,2064,-1902,16107,7619,-1367,3102,24.28
9.005000,1809,-3210,16510,11400,-1613,3408,24.29
9.015000,1750,-2500,17453,10357,-2278,3646,24.29
9.027000,1735,-1708,16807,7927,-2381,2796,24.33
9.037000,1553,-1733,17123,5799,-2077,2302,24.33
9.047000,710,-1352,16718,3765,-2974,2003,24.31
9.064000,1680,-1421,16852,2254,-4382,731,24.26
9.074000,3537,-1602,16993,1287,-3268,757,24.26
9.085000,3786,-1396,17707,436,-413,2554,24.30
9.095000,3198,-1091,16750,-812,1445,3946,24.30
9.105000,2438,-932,15811,-1004,1621,4242,24.28
9.115000,2315,-2084,15373,-164,714,4211,24.28
9.125000,2201,-1784,15725,1185,213,4450,24.31
9.139000,1564,-1680,15719,2080,-1503,4102,24.27
9.149000,1317,-1953,16290,3085,-2625,4183,24.27
9.159000,678,-2210,17349,5808,-4139,3768,24.28
9.176000,-514,-1682,17112,7619,-6827,3188,24.28
9.186000,124,-2221,19243,6373,-6975,2279,24.25
9.196000,540,-321,19314,4592,-5546,999,24.25
9.214000,2133,-122,19853,-1840,-1280,-1923,24.30
9.224000,3755,493,17993,-4897,286,-2032,24.30
9.234000,3728,26,16656,-8445,2246,-2263,24.30
9.251000,4097,-1428,14247,-8648,4581,371,24.31
9.261000,3696,-2040,13764,-5650,4168,2096,24.32
9.271000,2792,-2192,14443,-1756,2460,3299,24.32
9.289000,1772,-1831,16229,5562,-1334,4125,24.30
9.299000,1739,-1570,17290,6805,-2991,4485,24.29
9.309000,1555,-1109,17651,6589,-4142,4762,24.29
9.326000,1502,713,17228,5248,-5180,1469,24.32
9.336000,1701,-613,17199,4739,-6803,1651,24.30
9.346000,1562,-489,15012,8687,-11772,6765,24.30
9.363000,2447,1827,15274,13736,-20563,7330,24.32
9.373000,4255,1294,16874,13427,-19199,3987,24.29
9.383000,5451,1157,16491,12401,-15396,1481,24.29
9.402000,6184,423,16544,8667,-7831,1244,24.29
9.412000,6128,998,16716,6753,-4346,1674,24.31
9.423000,6232,1068,17270,4188,-461,1743,24.31
9.433000,6059,531,17328,2171,2229,2594,24.31
9.443000,5621,238,16933,777,4005,3636,24.31
9.453000,4741,-506,16932,-353,5025,3530,24.32
9.463000,3920,-746,16038,-336,4595,2763,24.32
9.477000,3267,-450,14967,2180,2506,1719,24.32
9.514000,5365,1879,17253,4843,-416,2177,24.28
9.524000,5301,1966,17928,3693,-911,2986,24.28
9.534000,4973,1892,18244,2455,-1302,4283,24.35
9.551000,3787,1548,18015,2279,-2755,4243,24.30
9.561000,3194,1488,18152,2417,-3926,3279,24.30
9.571000,387,13100,5728,3344,-6409,-1700,24.26
9.589000,6920,-1638,13441,25129,-18913,1324,24.27
9.599000,7808,2907,13540,23985,-16104,4984,24.27
9.609000,6827,6981,16587,20092,-12252,5761,24.28
9.626000,7085,3622,15175,16591,-10599,3136,24.30
9.636000,8542,3897,16465,15863,-11030,5169,24.30
9.646000,7862,4993,16483,12451,-11918,7084,24.32
9.664000,7372,4837,16813,6233,-6325,6702,24.32
9.674000,7112,6751,17215,499,-2138,3380,24.30
9.684000,7913,-1260,24605,-9294,5407,3896,24.30
9.701000,5134,4387,18907,-5774,-171,-317,24.29
9.711000,5676,3684,13191,-4889,193,-728,24.32
9.721000,8448,1935,7956,1255,-1332,-1313,24.32
9.738000,5898,4069,18046,9890,-10960,-1934,24.31
9.748000,8693,3018,10354,9630,-9524,963,24.30
9.758000,9793,7031,15312,8417,-6855,1830,24.30
9.777000,7260,3903,12870,6417,-3919,4996,24.34
9.787000,7668,5050,13747,5199,-4536,6300,24.31
9.798000,6457,5054,13683,4423,-5820,6196,24.31
9.808000,7592,6439,13867,5793,-6197,4542,24.28
9.818000,8806,6557,14838,3261,-5117,3279,24.28
9.828000,9453,5407,13472,3048,-4572,4532,24.30
9.838000,9330,4204,13138,4432,-4604,5827,24.30
9.852000,9253,6365,14274,4686,-4179,4178,24.32
9.862000,8826,5204,13059,5452,-4221,4843,24.35
9.872000,8896,4416,12717,5690,-4160,4259,24.35
9.926000,9801,4135,11123,4038,-3500,2880,24.26
9.936000,8884,4479,10960,4544,-4281,2850,24.26
9.946000,8518,5755,12679,3625,-4705,2108,24.31
9.964000,10345,3011,1418,7195,-4198,-3050,24.32
9.974000,9496,7391,8015,3341,-2451,-1073,24.32
9.984000,10315,5397,11282,1736,-1573,-1040,24.33
10.001000,9696,5617,12759,1570,-1044,-1744,24.33
10.026000,10545,5780,11447,1464,-2656,-271,24.35
10.036000,11672,5983,12617,1741,-1823,1687,24.28
10.046000,10617,5334,11276,4056,-3149,2151,24.28
10.056000,9306,7711,11043,4892,-4187,1722,24.29
10.076000,6441,3288,10634,-411,-9817,-1840,24.28
10.086000,10633,1114,10776,-7428,-13058,1624,24.28
10.096000,12659,9402,12376,-8774,-7925,-643,24.28
10.113000,11572,6120,12242,-10398,-9825,1166,24.32
10.123000,12562,6028,11681,-10734,-10268,1098,24.32
10.133000,11846,6124,12726,-9941,-10112,1014,24.31
10.152000,10530,4777,11221,-8773,-11772,2488,24.33
10.162000,10385,5486,11608,-7960,-13048,401,24.33
10.172000,9393,7445,22199,-7363,-14432,-3163,24.32
10.189000,11498,3065,8430,-4657,-13603,-1292,24.32
10.199000,12168,3330,7866,-2563,-13402,-1804,24.37
10.209000,10779,3608,8656,41,-13491,-2790,24.37
10.227000,13032,5224,8726,685,-11863,-4544,24.34
10.237000,13742,4977,6994,-1152,-11251,-2911,24.29
10.247000,13194,5993,9296,-1015,-11333,-3118,24.29
10.264000,14392,4899,10071,-1508,-11251,-3469,24.34
10.274000,14776,4682,7209,-996,-10654,-2230,24.36
10.284000,12513,5540,8408,1132,-11275,-1864,24.36
10.301000,20953,5516,12628,3496,-11421,704,24.32
10.311000,17550,4554,6307,3705,-9810,2909,24.33
10.321000,15747,4163,3859,3323,-11463,4296,24.33
10.339000,14078,4776,7671,11333,-18210,7083,24.33
10.349000,16867,3440,8309,5961,-17000,7242,24.34
10.359000,13526,4467,6935,4306,-12638,9448,24.34
10.376000,12216,6984,5122,3328,-8443,3308,24.31
10.386000,11393,8792,5127,7051,-7120,2086,24.29
10.396000,14597,5193,2642,8031,-7812,1919,24.29
10.414000,15635,4674,3656,11548,-8184,1011,24.31
10.424000,15410,5474,2808,14672,-11767,1240,24.31
10.434000,18241,6100,4156,16230,-12085,695,24.32
10.451000,15566,7444,3644,11397,-11099,2698,24.36
10.461000,17825,5728,3728,10680,-11253,7128,24.36
10.471000,16305,6110,4910,8344,-10429,6713,24.32
10.488000,16379,3854,3763,2993,-7257,3859,24.34
10.498000,15558,2979,2425,-548,-5651,4370,24.34
10.508000,13779,2892,2054,-3184,-3368,2944,24.36
10.527000,14405,1400,934,455,-3697,560,24.33
10.552000,13719,5471,1359,4887,-6034,1030,24.29
10.562000,14538,4020,891,5932,-6340,1411,24.33
10.572000,14976,3810,911,5561,-5707,3797,24.33
10.582000,15613,4209,2582,4140,-4068,4817,24.35
10.602000,18041,4837,3150,-3506,1381,7685,24.32
10.612000,17845,6719,3429,-7787,5423,8151,24.32
10.622000,16283,4738,1369,-11016,7146,5753,24.35
10.639000,16390,4052,2178,-14074,8259,4274,24.30
10.649000,14575,3648,955,-15219,8444,1902,24.30
10.659000,13393,1487,695,-12304,5467,-178,24.33
10.676000,13847,460,96,-7381,-1217,966,24.33
10.686000,13736,648,240,-5371,-2500,721,24.31
10.696000,14013,946,508,-3287,-3270,-199,24.31
10.714000,14145,1506,1324,-1146,-2199,735,24.35
10.724000,14106,2360,2401,-3206,-2060,-1961,24.35
10.734000,14723,4425,1665,-3014,-897,-4030,24.35
10.751000,15436,3770,1383,-339,-2482,-2183,24.31
10.761000,15937,4087,2084,1267,-4575,-2163,24.33
10.771000,16458,3892,2275,1026,-5169,-1935,24.33
10.789000,15894,3391,1673,597,-6647,-14,24.34
10.799000,16880,1574,943,1783,-8419,1233,24.32
10.809000,17030,662,378,2684,-9547,3765,24.32
10.826000,16542,1467,1425,51,-6702,4407,24.38
10.836000,15148,2184,76,-1506,-2688,-1091,24.30
10.846000,17161,-565,885,-2395,-3845,4910,24.30
10.863000,13982,4345,2961,-4122,-506,1598,24.33
10.873000,12925,2345,2021,-6279,2824,-126,24.38
10.883000,16495,2235,153,-8314,4750,-1643,24.38
10.902000,15667,3234,568,-4685,5908,-478,24.37
10.912000,17118,2567,-260,-1895,4479,-722,24.30
10.922000,15632,2692,1149,896,1733,403,24.30
10.939000,16399,3523,1696,2470,1471,2804,24.34
10.949000,17274,2116,854,2282,-327,5539,24.34
10.959000,15229,1104,2391,-427,-3406,8023,24.33
10.977000,16064,1598,1596,-1953,-2383,11436,24.34
10.987000,15562,1419,1917,-2771,465,13805,24.34
10.997000,14647,2271,510,-2862,2449,13795,24.34
11.051000,15549,1453,1800,-13783,-6558,5571,24.30
11.071000,17016,-761,5415,-14429,-3369,13032,24.35
11.081000,13679,-772,2737,-13167,-3306,11835,24.35
11.091000,14417,-1996,522,-11969,-3635,12306,24.34
11.101000,15671,-3074,-823,-10008,-5418,12830,24.34
11.111000,15982,-1768,13,-8054,-6496,11676,24.29
11.126000,16332,-1911,380,-2912,-5191,9006,24.31
11.136000,15762,-1453,1328,-489,-2669,5796,24.31
11.146000,13939,-260,1835,-36,-543,1386,24.37
11.164000,15740,1207,3218,-7042,1256,-9511,24.37
11.174000,18717,1345,2424,-9570,-365,-12428,24.34
11.184000,17860,911,873,-10523,-1104,-15817,24.34
11.201000,17309,-865,-685,-6661,-3290,-20039,24.33
11.211000,19538,-1947,-622,-4555,-3444,-20379,24.33
11.221000,20486,-1735,965,-3980,-3331,-16999,24.33
11.238000,11095,5770,3892,895,-9800,1610,24.35
11.248000,13152,1885,-1833,-9452,-16535,-4129,24.36
11.258000,20839,-2002,-1576,-14211,-22271,-7416,24.36
11.277000,15802,962,-1986,-10753,-14513,-6249,24.32
11.287000,15995,163,-4595,-7344,-13562,-5268,24.36
11.298000,15746,70,-615,-7561,-14158,-3565,24.36
11.314000,15869,1360,-3587,-6641,-15718,-3244,24.36
11.324000,15709,1235,-4557,-4832,-16383,-2794,24.35
11.334000,16118,1554,-2248,-1851,-14333,-796,24.35
11.352000,16961,2092,-707,661,-1428,2206,24.39
11.362000,15595,2666,-2079,1171,4182,2337,24.33
11.372000,13822,2167,-3415,134,5181,2238,24.33
11.389000,15254,1828,-3389,1136,4669,4037,24.36
11.399000,15295,1474,-3698,729,4607,4764,24.36
11.409000,14365,1602,-3317,-896,4970,4973,24.36
11.426000,13595,-969,-7193,-13824,1473,830,24.36
11.436000,13934,-4053,-6467,-7041,-3555,2717,24.36
11.446000,12993,-709,-4007,-4960,-8397,7258,24.34
11.464000,15155,-81,-2577,-2926,-7449,9475,24.35
11.474000,16618,212,-2029,-1805,-5003,8429,24.35
11.484000,17561,1879,-1262,-1587,-1042,5318,24.35
11.501000,18787,2338,-1959,-19,9973,-843,24.33
11.511000,18689,1256,-1543,-1060,8651,-2689,24.33
11.521000,18081,1685,2276,415,8961,-3488,24.33
11.539000,15813,2167,-380,580,12094,-4500,24.32
11.549000,10374,1970,-1386,180,7597,-3673,24.32
11.559000,9445,-958,-3692,-3200,6740,4255,24.37
11.576000,16079,-989,-2804,-2748,3171,4570,24.31
11.599000,21362,709,1847,4135,-3317,4234,24.35
11.609000,20727,1064,1278,5502,-1471,2223,24.35
11.619000,16927,734,527,4489,2652,293,24.38
11.629000,15165,1183,-2204,2052,4622,5,24.38
11.639000,16193,-798,-2834,572,2928,-894,24.41
11.652000,15990,-1740,-1870,2044,1499,143,24.41
11.662000,15808,442,-3231,-1541,207,463,24.36
11.672000,15956,-1250,-2881,-1705,-3909,1041,24.38
11.682000,16751,-290,-909,210,-5820,1750,24.38
11.692000,16523,1329,-451,719,-4783,598,24.35
11.702000,16545,564,-1525,-50,-4526,-1696,24.35
11.712000,17010,-1093,-3003,417,-7763,-1358,24.37
11.727000,17008,-68,-450,781,-6142,-343,24.37
11.737000,16478,-286,-1820,-133,-5032,-37,24.40
11.747000,16244,-156,-1632,141,-3857,876,24.40
11.764000,15696,704,-1465,-512,-2366,833,24.38
11.774000,15746,1543,-1173,-1048,-1363,173,24.39
11.784000,15453,464,-1854,-1882,-1264,-218,24.39
11.801000,15846,677,-2099,-1979,-2356,-4,24.37
11.811000,16278,44,-1458,-1962,-1724,330,24.34
11.821000,15923,717,-1490,-2241,-660,961,24.34
11.839000,14291,435,-2359,-1965,339,1758,24.38
11.849000,14161,618,-2424,-1692,192,1464,24.35
11.859000,14258,809,-2008,-1014,-58,698,24.35
11.876000,15862,370,-1512,-896,-971,-879,24.35
11.886000,16551,-5,-1733,-1307,-355,-747,24.35
11.896000,15824,-135,-1217,-1730,416,-294,24.35
11.914000,16233,-23,-3073,-2025,989,824,24.33
11.924000,15664,304,-2953,-1783,-7,1426,24.33
11.934000,15854,551,-2211,-1335,-961,1534,24.32
11.951000,15890,-63,-1110,-626,-1132,1286,24.40
11.961000,16446,585,-1590,-473,-1521,627,24.40
11.971000,16893,43,-1347,-905,-1898,205,24.38
11.988000,17002,-654,-1704,-924,-1266,709,24.33
12.000000,16284,-514,-3011,-442,-1634,1247,24.33
12.010000,16168,-344,-2850,-496,-2180,1534,24.39
12.020000,16482,-188,-2615,-546,-2112,1506,24.39
12.030000,16416,-424,-2600,-463,-2264,1641,24.38
12.040000,15975,-364,-2447,-215,-2562,1615,24.38
12.050000,15785,-32,-2388,-304,-2241,1678,24.37
12.064000,15658,218,-2785,-960,-1796,1524,24.36
12.074000,15539,-197,-2650,-1235,-2030,1388,24.36
12.084000,15467,-426,-2562,-1395,-2033,1458,24.38
12.102000,16092,-143,-2782,-1245,-2276,1891,24.34
12.124000,15089,-45,-2904,-775,-1378,2102,24.41
12.134000,15234,-327,-2650,-386,-935,1985,24.41
12.144000,15468,-616,-2610,-164,-784,2199,24.41
12.154000,15663,-468,-2534,-533,-1237,2597,24.41
12.177000,16201,-257,-1404,-1612,575,2855,24.39
12.187000,15913,-734,-1555,-2930,1641,2996,24.39
12.197000,15597,-748,-1504,-3725,2834,3438,24.39
12.214000,17002,-167,-2279,-3905,2754,3727,24.33
12.224000,16361,-1000,-2307,-3743,1884,3792,24.39
12.234000,15570,-1433,-2376,-3026,1864,4367,24.39
12.251000,15682,-2057,-2436,-2022,2181,6846,24.36
12.261000,15732,-2242,-2312,-1597,2079,7635,24.37
12.271000,15420,-2105,-2201,-1668,2368,8629,24.37
12.289000,15608,-2369,-3200,-1346,2445,10882,24.37
12.299000,15186,-1805,-2734,-1638,1732,12387,24.37
12.309000,14651,-2917,-2979,-2631,970,13323,24.37
12.326000,14566,-3320,-1701,-2465,-319,15095,24.37
12.336000,14204,-2295,-1836,-946,247,14979,24.39
12.346000,14183,-2573,-1957,-768,462,13747,24.39
12.363000,15214,-2676,-1277,-220,-724,10807,24.36
12.373000,14378,-4466,-1743,399,-1341,10277,24.36
12.383000,13366,-4955,-2335,835,-1056,10000,24.40
12.402000,14951,-5523,-1045,2565,898,8924,24.37
12.412000,15272,-5728,-1336,2693,1396,8916,24.37
12.422000,15811,-5780,-700,2748,1982,8578,24.35
12.439000,15777,-6419,-971,2266,2337,7076,24.35
12.449000,16064,-6230,-265,3319,2341,5965,24.35
12.459000,14991,-6146,364,2766,2976,5287,24.39
12.477000,14831,-6487,-1746,1067,5052,3610,24.38
12.487000,15135,-7592,-2050,463,1436,2996,24.38
12.497000,15178,-7143,-1294,415,-906,2460,24.37
12.514000,16608,-7774,386,2195,-2143,2826,24.36
12.524000,17291,-8811,242,2020,-1834,3096,24.36
12.534000,17176,-8737,260,2115,-1406,3605,24.37
12.551000,16599,-7327,-381,1156,-1982,3102,24.38
12.561000,16395,-6597,927,1487,-2801,2312,24.38
12.571000,15658,-6626,-30,1153,-3169,1048,24.39
12.589000,15080,-6466,302,-120,-3851,1108,24.34
12.599000,14578,-6863,-598,147,-4135,1250,24.34
12.609000,14520,-6065,-566,312,-4407,1101,24.37
12.626000,14526,-7836,-1673,-2010,-6600,-118,24.35
12.650000,14018,-5942,-1239,-1679,-5740,-889,24.35
12.660000,13708,-5690,-1092,-1384,-4665,-1704,24.35
12.670000,14029,-6109,-1726,-1404,-3663,-2687,24.42
12.680000,17791,-6532,-1066,-1791,-3226,-3457,24.42
12.701000,9817,-4733,-3105,-1181,2576,-4096,24.40
12.711000,11138,-6494,-88,-1747,2397,-1745,24.39
12.722000,13323,-4867,-2259,-1338,3410,-1426,24.39
12.732000,14888,-5771,-2192,-1552,711,-2743,24.42
12.742000,15460,-7697,-2462,-2045,-2325,-3431,24.42
12.752000,14006,-8157,-1241,-2738,-2251,-2618,24.36
12.762000,13365,-7289,-2616,-3123,-1254,-1351,24.36
12.777000,14941,-6989,-969,-4242,905,-1811,24.41
12.787000,16127,-7068,-188,-4296,3599,-2332,24.41
12.797000,16826,-7082,-1466,-4455,5032,-2885,24.41
12.814000,16390,-8229,-1101,-4049,5656,-1939,24.40
12.824000,6825,-14834,-2937,1171,1299,-2564,24.41
12.834000,14484,-5017,-142,2314,163,-1263,24.41
12.852000,15704,-5902,-734,-2804,9015,2818,24.42
12.862000,13862,-3586,278,-1063,11647,1355,24.34
12.872000,18517,-8408,300,-10010,15511,2519,24.34
12.889000,15022,-5329,906,-12035,15001,6776,24.42
12.899000,13256,-5850,-995,-11986,17743,6646,24.42
12.909000,12936,-7495,-3002,-11090,17176,8152,24.41
12.926000,13476,-3908,-1459,-7015,9393,5175,24.31
12.936000,12914,-4987,-753,-6044,7877,3561,24.31
12.946000,13771,-5506,-804,-5408,6522,1742,24.37
12.964000,14147,-6922,1213,-6445,4852,1041,24.42
12.974000,14008,-6321,-501,-6245,2427,251,24.42
12.984000,18408,-5175,-597,-4999,-1384,-1946,24.41
13.001000,4723,-1903,-342,-3679,-7194,-4825,24.40
13.011000,13127,-7848,1672,940,-5207,-3822,24.40
13.021000,14236,-6317,947,201,-4214,-3874,24.40
13.039000,14241,-6562,1185,598,-3112,-3733,24.42
13.049000,14502,-6379,1216,858,-2651,-3907,24.42
13.059000,14758,-6842,477,1128,-2187,-3707,24.38
13.076000,16158,-6756,893,532,-236,-639,24.44
13.086000,16239,-6432,1455,508,-335,-442,24.44
13.096000,16504,-6835,1721,775,-372,-503,24.39
13.113000,16165,-6684,1722,-175,223,1527,24.38
13.123000,15565,-5484,1731,-393,1180,591,24.38
13.133000,16452,-5974,1035,-1123,1576,32,24.38
13.152000,19517,-4570,-650,1414,-3749,2534,24.41
13.175000,24332,-4182,1575,-117,-1056,7757,24.40
13.185000,25411,-4492,1382,-655,610,10765,24.40
13.195000,25059,-4875,2110,-1561,3053,15430,24.37
13.205000,22466,4538,-2519,-1368,5451,15126,24.37
13.215000,24741,-2401,-4696,-214,3270,19544,24.40
13.227000,18359,-237,2855,4390,-3142,20355,24.40
13.237000,31322,-8856,5731,365,5694,29097,24.37
13.247000,18020,-5969,1445,-2465,8032,32576,24.37
13.264000,19416,-6066,3428,-4176,9138,32764,24.35
13.274000,24842,-7391,3761,-5469,10112,32764,24.38
13.284000,27952,-9333,8208,-7898,6200,32764,24.38
13.301000,9161,-8008,1736,-12116,11895,32764,24.41
13.311000,10645,-9636,3317,-12291,9049,32764,24.38
13.321000,7376,-9073,2860,-12291,8676,32764,24.38
13.339000,777,-9096,515,-11095,4880,32764,24.42
13.349000,-2237,-8890,304,-10040,1971,32669,24.40
13.359000,-4141,-9549,28,-8371,-570,26737,24.40
13.376000,-7149,-11379,-494,-5098,-1334,14682,24.39
13.386000,-10163,-10782,-2608,-2562,-4297,5988,24.39
13.396000,-13605,-11066,-5109,1280,-12770,-6698,24.41
13.414000,-14540,-12065,-5410,10298,-30766,-32764,24.41
13.426000,-14901,-11899,-4690,17176,-32764,-32764,24.35
13.436000,-14508,-11424,-4839,21509,-32764,-32764,24.35
13.446000,-11378,-9428,-4017,24955,-32764,-32764,24.47
13.456000,-3832,-6678,-2686,26341,-32764,-32764,24.47
13.466000,4219,-3459,-3269,24422,-32764,-32764,24.39
13.476000,12913,-919,-4014,20248,-32764,-32764,24.39
13.488000,17902,1704,-6665,11897,-32764,-32764,24.39
13.498000,18694,2017,-8338,8056,-32764,-32764,24.39
13.508000,19019,1170,-9249,4826,-32764,-32764,24.40
13.527000,21074,2247,-10805,-1185,-32313,-32764,24.37
13.537000,26985,3552,-11818,-2808,-18923,-32705,24.37
13.547000,31961,5058,-12415,-3890,-5839,-12306,24.46
13.564000,32740,7447,-12769,-4326,14304,27547,24.40
13.574000,30523,7882,-12780,-4555,22977,32764,24.40
13.584000,26113,8514,-12341,-4877,30726,32764,24.41
13.602000,21333,8094,-10555,-6466,32764,32764,24.43
13.612000,19990,6859,-9330,-8524,32764,32764,24.43
13.622000,18539,6090,-8921,-11276,32764,32764,24.41
13.639000,16969,3195,-6955,-15793,32764,32764,24.41
13.649000,13957,2586,-7868,-18472,32764,32764,24.40
13.659000,8508,3104,-9791,-21763,32764,32764,24.40
13.715000,-11538,-7520,-9180,-9890,5181,14345,24.40
13.739000,-18621,-2144,-17018,8023,-10529,-30669,24.35
13.749000,-15939,-1236,-17198,18013,-23306,-32764,24.35
13.759000,-12672,188,-13971,26458,-32764,-32764,24.36
13.769000,-7493,2418,-10798,32354,-32764,-32764,24.36
13.789000,9139,10101,-9683,32764,-32764,-32764,24.40
13.799000,17993,13564,-9716,27492,-32764,-32764,24.43
13.809000,23424,16820,-12044,19503,-32764,-32764,24.43
13.826000,31591,13737,-16122,5054,-32764,-32764,24.41
13.836000,32739,9621,-13581,1399,-32764,-32764,24.40
13.846000,32739,9111,-9460,-5236,-32178,-32759,24.40
13.863000,32739,16325,-13769,-10795,28505,32764,24.39
13.873000,32739,18615,-16210,-10982,32764,32764,24.39
13.883000,32739,20518,-17576,-11486,32764,32764,24.38
13.902000,12360,18407,-18856,-12306,32764,32764,24.44
13.912000,12641,13512,-16418,-10555,32764,32764,24.44
13.922000,15876,8768,-11477,-10200,32764,32764,24.40
13.939000,17491,3560,-5365,-13165,32764,32764,24.41
13.949000,17499,1838,-5562,-16076,32764,32764,24.41
13.959000,15968,1935,-7109,-18781,32764,32764,24.43
13.977000,8761,3835,-9853,-20158,32764,32764,24.40
13.987000,4898,2751,-10978,-18534,32764,32764,24.40
13.997000,477,815,-10180,-16419,31813,32764,24.39
14.014000,-1773,-3156,-9415,-9703,16973,32658,24.44
14.024000,-2610,-3881,-9923,-5735,10920,23365,24.44
14.034000,-5856,-4503,-10588,1762,5220,11688,24.39
14.051000,-11340,-6669,-9556,14841,-8964,-16136,24.42
14.061000,-12267,-7632,-7579,22735,-19130,-32624,24.42
14.071000,-11434,-7914,-4857,29136,-30955,-32764,24.45
14.126000,32739,8881,-8802,11188,-32764,-32764,24.42
14.136000,32739,10230,-10012,5918,-32764,-32764,24.42
14.146000,32048,9093,-10528,1148,-32764,-32764,24.42
14.164000,28055,7428,-13263,-4281,-32764,-32764,24.42
14.174000,30981,9189,-13616,-6091,-16759,-6991,24.40
14.184000,32739,12541,-14586,-7022,10557,29958,24.40
14.201000,32439,18169,-18119,-7362,32764,32764,24.42
14.211000,28657,19349,-16960,-7435,32764,32764,24.41
14.221000,25190,18064,-14846,-8181,32764,32764,24.41
14.238000,23918,14092,-11474,-11210,32764,32764,24.43
14.259000,24411,9348,-6823,-15520,32764,32764,24.43
14.269000,22449,8318,-6189,-18929,32764,32764,24.41
14.279000,18112,8449,-7512,-23095,32764,32764,24.41
14.289000,9264,10759,-9886,-28782,32764,32764,24.41
14.314000,-4137,2838,-11700,-30076,32764,32764,24.44
14.324000,-8800,1187,-11722,-26531,32764,32764,24.47
14.334000,-11165,-2118,-15538,-18179,20716,31923,24.47
14.352000,-12559,-3704,-15429,1176,-9597,-8683,24.42
14.362000,-13180,-5875,-12935,12434,-20418,-22070,24.42
14.372000,-12595,-6550,-10619,22783,-30409,-32764,24.42
14.389000,-10236,-6301,-4913,32764,-32764,-32764,24.44
14.399000,-3743,-4183,-3032,32764,-32764,-32764,24.44
14.409000,7500,-1403,-3278,32764,-32764,-32764,24.42
14.426000,31447,638,-574,32764,-32764,-32764,24.40
14.436000,32739,214,-342,29727,-32764,-32764,24.40
14.446000,32739,-2200,-191,16604,-32764,-32764,24.40
14.464000,32740,-10403,-103,-1928,-32764,-32764,24.43
14.474000,32740,-6546,2332,-11345,-32764,-12834,24.43
14.484000,32739,1595,-3877,-19011,-3145,28858,24.41
14.501000,32347,14186,-18086,-21686,32764,32764,24.41
14.511000,32739,17724,-18956,-19034,32764,32764,24.41
14.521000,31828,16202,-16044,-16551,32764,32764,24.44
14.539000,23821,12051,-12414,-15400,32764,32764,24.41
14.549000,18057,9987,-11084,-15405,32764,32764,24.41
14.559000,13899,7684,-10067,-15707,32764,32764,24.42
14.576000,7103,5135,-8918,-17117,32764,32764,24.41
14.586000,1846,3236,-9033,-17434,32764,32764,24.41
14.596000,-4631,1377,-9677,-17408,32764,32764,24.43
14.613000,-17103,-1983,-13430,-9125,22033,20439,24.44
14.623000,-21494,-1324,-17376,-1000,4577,-11744,24.44
14.633000,-23488,676,-21942,13901,-22237,-32764,24.44
14.652000,-10333,7097,-17185,32764,-32764,-32764,24.45
14.662000,225,11682,-12768,32764,-32764,-32764,24.44
14.672000,12100,13177,-9811,32764,-32764,-32764,24.44
14.689000,27766,13594,-6595,18787,-32764,-32764,24.41
14.699000,32739,12267,-8182,8180,-32764,-32764,24.42
14.709000,32739,9145,-8229,815,-32764,-32764,24.42
14.726000,32740,-580,-6376,-8136,-32764,-32764,24.45
14.736000,32739,2141,-7545,-12367,-14422,-9330,24.42
14.746000,32739,10814,-14203,-15024,16348,30883,24.42
14.764000,32739,20258,-21572,-12586,32764,32764,24.41
14.783000,28861,17252,-17866,-10794,32764,32764,24.39
14.793000,23701,14650,-13614,-11363,32764,32764,24.42
14.803000,19706,11790,-12009,-12492,32764,32764,24.42
14.813000,16312,9803,-12014,-13674,32764,32764,24.46
14.839000,9403,4761,-7340,-18145,32764,32764,24.40
14.849000,9516,3615,-9403,-18442,32764,32764,24.37
14.859000,7428,3374,-10640,-16262,32764,32764,24.37
14.876000,-4778,-92,-12785,-1852,6249,11488,24.42
14.886000,-10185,-2232,-13416,6619,-14632,-18484,24.42
14.896000,-12470,-3277,-14500,17914,-32746,-32764,24.43
14.913000,-2492,-3178,-8779,30740,-32764,-32764,24.44
14.923000,5391,-2947,-6329,28268,-32764,-32764,24.44
14.933000,13031,-2428,-4756,22302,-32764,-32764,24.42
14.951000,20661,-2337,-4000,9621,-32764,-32764,24.46
14.961000,21972,-406,-4354,5742,-32764,-32764,24.46
14.971000,20616,136,-7078,2338,-32764,-32764,24.41
14.989000,18595,3616,-10106,-1111,-18036,-32764,24.42
14.999000,18725,3155,-11199,-2259,-12144,-30148,24.42
15.009000,18781,4502,-11416,-2715,-7198,-20986,24.43
15.027000,14429,5684,-13922,-2836,-356,-7492,24.38
15.037000,10355,6523,-15330,-2044,710,-5150,24.38
15.047000,6762,6848,-15868,-397,913,-5327,24.43
15.064000,5247,6308,-14863,2095,679,-6084,24.40
15.074000,5014,6298,-13481,3010,367,-7827,24.40
15.084000,4609,5804,-12368,3693,364,-10530,24.43
15.101000,7037,5527,-9172,4810,-432,-15802,24.38
15.111000,9897,5104,-7664,4674,241,-16721,24.38
15.121000,12505,4206,-6804,4607,598,-17025,24.39
15.139000,16307,4070,-6014,5297,1076,-14360,24.39
15.149000,16546,4640,-6242,4238,2063,-10967,24.46
15.159000,14427,5000,-6251,2845,4472,-8225,24.46
15.177000,10122,4887,-6340,1127,7465,-5779,24.41
15.187000,9078,4912,-5472,-179,8417,-7004,24.45
15.197000,11081,5581,-4406,-460,8909,-7745,24.45
15.214000,14563,6202,-3030,-532,9707,-6565,24.42
15.224000,15143,5992,-1736,-67,10361,-5279,24.44
15.234000,16543,5715,-689,694,11420,-2596,24.44
15.251000,17419,6059,-569,2128,14362,2788,24.41
15.261000,17025,5806,-335,2207,14588,4387,24.43
15.271000,17052,5136,482,1118,16156,5165,24.43
15.289000,16464,4403,-1613,-1833,18073,5593,24.44
15.319000,16746,6433,-3189,-2549,14817,6992,24.42
15.329000,16168,8254,-3481,-1741,14941,8534,24.42
15.339000,16815,10047,-4392,-562,15110,8355,24.41
15.364000,24668,7736,-2957,3196,13398,9309,24.44
15.374000,27570,7753,-3139,4264,13258,11809,24.44
15.384000,24763,6822,-3846,5128,11556,11584,24.41
15.402000,16996,2616,-1815,4934,9667,10744,24.44
15.412000,13231,1134,-1196,3660,12102,11913,24.44
15.422000,11193,848,-1562,3012,15078,13072,24.44
15.439000,10551,4061,-2080,4061,14212,11052,24.43
15.449000,11410,3338,-3104,5430,11897,8004,24.43
15.459000,11821,3148,-2413,7727,6344,4734,24.39
15.477000,12195,1776,2092,11361,-3852,-4250,24.42
15.487000,13766,971,4020,12666,-7317,-7162,24.42
15.497000,20259,-3012,4758,11941,-9827,-8284,24.46
15.514000,28477,-4372,4982,7349,-10681,-4877,24.43
15.524000,28531,-239,3165,4204,-12072,-5212,24.43
15.534000,21384,4492,143,2201,-14129,-7480,24.45
15.552000,12243,6684,-4221,4728,-20438,-12852,24.43
15.562000,10642,4793,-815,6744,-22458,-16375,24.43
15.572000,10873,1668,-248,6254,-18719,-16368,24.45
15.589000,11456,1379,-2085,4254,-10688,-15339,24.44
15.599000,12730,1753,-3778,2822,-10151,-15033,24.44
15.609000,13852,1488,-3795,2032,-8736,-13293,24.44
15.664000,15554,5404,-6160,262,-11747,-10128,24.42
15.674000,14584,6241,-6964,67,-10394,-8070,24.48
15.684000,11694,6615,-7436,49,-9749,-7121,24.48
15.701000,10668,8595,-7542,-1941,-4803,-2916,24.48
15.711000,10397,8817,-7638,-2186,-2892,-811,24.46
15.722000,10920,9572,-7973,-1409,-1342,745,24.46
15.732000,12768,7111,-11274,-27,2146,-62,24.46
15.742000,9781,386,-18553,4158,1217,-3806,24.46
15.752000,2131,-149,134,5576,-2012,-7170,24.47
15.762000,7365,16397,23051,762,2544,-4407,24.47
15.777000,32739,22323,-7567,-3898,6346,2246,24.43
15.787000,17811,9696,-20330,2257,-5306,1871,24.50
15.797000,3485,235,-18360,7052,-11982,-4382,24.50
15.814000,-5883,-13125,-4970,-3885,-79,-8022,24.48
15.836000,24766,22741,-3696,-16396,13670,-1573,24.44
15.846000,18165,23291,444,-7165,9273,-2787,24.46
15.856000,19347,22177,-1443,3851,3885,-264,24.46
15.866000,16076,15257,-5396,9655,2109,-122,24.41
15.876000,13709,6852,-6366,10474,384,-301,24.41
15.889000,9550,794,-7230,6821,208,-1908,24.42
15.899000,9177,2270,-5208,3442,1208,-885,24.42
15.909000,14129,5702,-5483,303,3408,31,24.45
15.927000,12296,3872,-7793,724,2769,-3500,24.46
15.937000,13057,4964,-3787,631,658,-4735,24.46
15.947000,14001,4222,-3608,-885,-110,-6498,24.42
15.964000,13130,6370,-4851,-4754,-3742,-7780,24.40
15.974000,10646,6804,-7956,-5434,-3596,-7589,24.40
15.984000,6552,12585,-7374,-5043,-3577,-9329,24.42
16.001000,14965,14916,-3020,1216,1740,-5480,24.44
16.011000,14164,8815,-4952,1332,895,-4343,24.44
16.021000,13380,7299,-4241,-197,-1151,-4384,24.47
16.039000,12533,9665,-4916,-1865,-3634,-6019,24.41
16.049000,11531,10470,-5510,-32,-2853,-6926,24.41
16.060000,12300,10430,-4998,1063,-1996,-5771,24.46
16.070000,12469,9029,-5162,1251,-1654,-5971,24.46
16.080000,11802,7772,-6554,-358,-2656,-6012,24.46
16.090000,11865,8501,-5798,-1500,-3864,-6197,24.46
16.100000,12793,10455,-4894,-1768,-4014,-5910,24.45
16.114000,10327,13011,-4570,-894,-2128,-4189,24.45
16.124000,10455,14342,-4539,2213,-289,-2452,24.42
16.134000,9974,11404,-5452,3206,1040,-1009,24.42
16.152000,11640,10555,-4714,2641,-981,-1710,24.42
16.162000,11458,6959,-7034,1276,-2581,-2590,24.46
16.172000,11159,9065,-5064,-757,-4084,-4420,24.46
16.189000,10589,9966,-5197,-987,-4246,-5090,24.46
16.199000,9867,10638,-6238,-1503,-3541,-5055,24.46
16.209000,9571,10414,-6586,-1132,-2983,-4730,24.46
16.227000,8620,11973,-6531,-554,-498,-2999,24.46
16.237000,-694,12249,-3047,-2403,3165,-6831,24.45
16.247000,7075,9919,-7216,-4977,5076,-15999,24.45
16.264000,16555,10964,-7972,-3839,7668,-8996,24.45
16.274000,9899,10766,-4527,-3103,6788,-10015,24.46
16.284000,12520,8387,-5954,-3417,4096,-11206,24.46
16.302000,13029,12392,-2770,-4754,2918,-8667,24.40
16.312000,9650,15483,-5549,-2028,3295,-7412,24.48
16.322000,7926,15413,-6785,848,3519,-3321,24.48
16.376000,13079,10210,-4097,1637,-1896,-4245,24.43
16.401000,8168,12943,-6612,209,-3180,-3350,24.46
16.411000,6052,14633,-5232,-80,-2184,-1536,24.48
16.421000,4524,14742,-3696,312,1322,503,24.48
16.431000,8531,13826,-7876,435,3015,489,24.46
16.489000,9706,12854,-4016,3518,-825,2039,24.46
16.501000,8673,11179,-4707,2481,-1786,439,24.46
16.511000,7657,12828,-5756,1260,-1148,728,24.44
16.521000,7665,13570,-5517,1432,278,1453,24.44
16.531000,8552,13228,-4820,1623,901,2566,24.48
16.541000,9043,12563,-4619,1755,1030,2897,24.48
16.551000,9604,12293,-4220,1852,465,2515,24.47
16.564000,9199,12377,-4492,2141,-326,1579,24.41
16.574000,8857,12694,-5017,2288,-370,1559,24.41
16.584000,8532,12790,-5201,2526,263,1618,24.44
16.602000,8531,12120,-5585,2028,867,2011,24.42
16.612000,8538,11911,-5563,1190,1295,2229,24.42
16.622000,9282,11578,-4875,712,1342,1807,24.43
16.639000,9648,11511,-4585,-367,378,328,24.43
16.649000,9662,11808,-4510,-623,111,-216,24.48
16.659000,9269,12345,-4652,-399,-368,-910,24.48
16.677000,8552,13952,-4901,804,-336,-360,24.50
16.687000,7400,14824,-5463,2499,338,320,24.42
16.697000,5968,13472,-5461,4109,1243,295,24.42
16.714000,5250,12841,-7094,2505,5241,-6264,24.48
16.724000,10316,13284,-6361,2663,6071,-4271,24.48
16.734000,11025,13123,-3491,4184,6415,-2966,24.48
16.751000,13049,9256,-3365,3758,2932,-5092,24.46
16.761000,12207,9429,-3593,2447,1960,-6078,24.50
16.771000,12450,10205,-4065,1506,64,-5913,24.50
16.789000,9633,10113,-4321,-156,-4060,-7631,24.49
16.799000,9426,9601,-4283,-1979,-5470,-11027,24.46
16.809000,5319,9127,1609,-3585,-3737,-12575,24.46
16.826000,358,12504,-2394,-6026,-2561,-17547,24.47
16.838000,12625,19895,-13002,-6952,-4176,-22723,24.44
16.848000,9857,15843,-4651,456,-2862,-12722,24.44
16.858000,4122,14303,-3447,1223,-3234,-14025,24.43
16.868000,5136,12973,-4662,269,-4753,-19365,24.43
16.878000,1412,14942,-3841,299,-4466,-21087,24.48
16.888000,3174,17104,-7319,-273,-2438,-21476,24.48
16.902000,3124,15905,-7902,435,1069,-19799,24.46
16.925000,2971,13820,-6470,1793,3281,-17399,24.48
16.935000,7250,17739,-9262,3285,1738,-10391,24.52
16.945000,11504,22376,-5889,5444,3061,-1820,24.52
16.955000,18923,31783,-7872,5075,14161,5929,24.47
16.965000,20120,32742,-11551,526,21759,14782,24.47
16.977000,14277,32742,-16383,8391,31306,17697,24.45
16.987000,9982,32742,-17789,18791,26693,15489,24.45
16.997000,8048,28048,-7004,26424,25654,14486,24.50
17.014000,9393,18714,2037,29562,31251,17350,24.48
17.024000,11045,15596,5714,27898,31562,19409,24.48
17.034000,13835,10420,8887,24627,30463,22007,24.50
17.052000,18086,6123,11759,13547,24767,23375,24.48
17.062000,21252,7242,12340,7426,21039,23733,24.48
17.072000,24788,7677,13044,-898,18482,25362,24.51
17.089000,25240,9625,13132,-14308,18058,30636,24.50
17.099000,21795,9903,12209,-20500,17504,32037,24.50
17.109000,17990,10163,11584,-25307,16922,31185,24.50
17.126000,11366,10784,6798,-28580,11868,23989,24.44
17.136000,9574,10274,5669,-27929,9379,21229,24.46
17.146000,7607,10215,4746,-27465,7379,17515,24.46
17.164000,6505,8836,2861,-25311,4712,12384,24.51
17.176000,7897,9399,3379,-24365,5027,11206,24.47
17.186000,8919,10485,2846,-23733,6485,11405,24.47
17.196000,8875,10546,2487,-23099,8308,12342,24.47
17.206000,9229,10060,3139,-22752,11351,14600,24.47
17.216000,9399,9444,1998,-22688,14721,16656,24.47
17.226000,8314,8112,1490,-23037,16923,17890,24.48
17.239000,5878,5980,1456,-23852,20509,17239,24.48
17.249000,5509,5191,1347,-24072,22228,16186,24.48
17.259000,6263,5311,1457,-24102,22865,14937,24.48
17.277000,9974,6021,3572,-23564,23658,14732,24.47
17.287000,12470,6275,2618,-23384,23623,14987,24.48
17.297000,12970,7353,2621,-22752,22005,14422,24.48
17.314000,12590,6179,2272,-19783,17502,9856,24.48
17.324000,14125,5780,2494,-18323,14981,7138,24.49
17.334000,16730,5833,2656,-17107,11966,6030,24.49
17.352000,22652,8819,3919,-15445,10250,6642,24.50
17.362000,23761,9299,3237,-13865,9296,9162,24.50
17.372000,22246,8468,1757,-11882,8296,10849,24.47
17.389000,17397,6208,288,-7771,8372,12861,24.50
17.399000,14864,5180,-266,-5380,7798,12588,24.50
17.409000,13277,2785,766,-3466,7087,10764,24.51
17.427000,13417,107,2238,-1924,6598,7112,24.47
17.451000,16592,-743,5314,-1435,4505,3128,24.54
17.461000,19608,0,5769,-1478,3180,2935,24.48
17.471000,20697,-94,7276,-945,2172,3258,24.48
17.501000,16997,-3006,8153,-757,14,3810,24.50
17.511000,15570,-4006,8540,-695,252,3360,24.50
17.521000,14232,-4931,9424,-385,535,1418,24.47
17.539000,14105,-6971,11219,-1927,1739,-2073,24.48
17.549000,15513,-8264,10821,-3251,815,-4667,24.48
17.559000,16929,-8425,10910,-4485,-1435,-5163,24.49
17.569000,18251,-6573,12096,-4996,-3095,-6603,24.49
17.614000,19920,-4305,8108,-4698,-10060,-8943,24.48
17.624000,19174,-4408,7546,-4176,-10573,-8761,24.47
17.634000,18776,-4886,6629,-3639,-11010,-8115,24.47
17.652000,17954,-5418,5611,-3164,-11880,-7647,24.48
17.662000,17618,-6372,5838,-3010,-12414,-6822,24.50
17.672000,17990,-6471,6117,-3164,-12679,-6294,24.50
17.689000,18057,-6477,5937,-3519,-13823,-6333,24.50
17.699000,18776,-5988,5880,-3510,-14802,-6436,24.48
17.709000,18888,-5240,5905,-3273,-15580,-6372,24.48
17.727000,18117,-4680,5147,-2711,-17015,-6277,24.48
17.737000,17275,-4734,5204,-2468,-17719,-6103,24.50
17.747000,15958,-4658,4736,-2265,-18297,-6194,24.50
17.764000,13974,-4286,4102,-1895,-19080,-6614,24.52
17.774000,13668,-4200,4221,-1899,-19138,-6666,24.51
17.784000,13314,-3492,3874,-2275,-18989,-6949,24.51
17.802000,12911,-2497,3333,-1860,-19416,-8036,24.51
17.812000,12474,-2226,2646,-1597,-19718,-8779,24.46
17.822000,12329,-1696,1631,-756,-19947,-9237,24.46
17.839000,12141,-445,1437,644,-20130,-9396,24.50
17.849000,12285,-538,1068,1398,-19662,-9879,24.50
17.859000,12011,-608,1135,1819,-19010,-9554,24.49
17.876000,10965,-549,722,1993,-16598,-8333,24.48
17.886000,10556,-323,860,1945,-15347,-7892,24.48
17.896000,10415,-268,879,1840,-13719,-7270,24.50
17.914000,10257,157,2383,613,-9191,-4761,24.52
17.924000,10877,-232,2740,-385,-7790,-2607,24.52
17.934000,11092,1741,3189,-538,-6888,-2536,24.50
17.944000,10729,2285,3414,-502,-6037,-2404,24.50
17.968000,10889,4007,4830,-466,-5255,-1681,24.47
17.978000,10119,4600,4677,-289,-4525,-2202,24.47
17.988000,9507,4872,4949,38,-3588,-2376,24.47
17.998000,9077,4438,4607,203,-1959,-2036,24.47
18.008000,8933,4113,4916,91,-469,-822,24.49
18.027000,8482,3730,5087,-883,3633,2116,24.47
18.037000,7946,3433,5066,-1717,5231,3261,24.47
18.047000,7662,3218,4976,-2336,6637,4063,24.51
18.064000,7456,3985,4312,-3238,8614,3367,24.49
18.074000,7677,4838,3148,-3259,8633,1921,24.49
18.084000,8059,5203,2837,-2517,7933,564,24.51
18.102000,9834,5904,2991,-1094,7666,-1427,24.51
18.112000,10466,6802,2315,-553,8060,-2016,24.51
18.122000,11219,6387,2411,-30,8021,-1647,24.49
18.139000,12289,5995,3094,878,9620,-846,24.49
18.149000,12645,5980,3134,1123,10957,-319,24.54
18.159000,12758,5450,3413,1371,12183,590,24.54
18.177000,13801,4638,4356,1690,14321,1476,24.48
18.187000,14784,4394,5114,2031,14870,1810,24.50
18.197000,15807,4157,5904,2504,15284,2057,24.50
18.214000,17442,3784,6801,2990,15264,3245,24.50
18.224000,17939,3024,7213,3464,15082,3865,24.46
18.234000,17923,2326,7584,3653,14634,3972,24.46
18.251000,16902,1144,7966,3501,13970,3716,24.50
18.261000,16867,773,8177,3272,13970,3326,24.51
18.271000,16962,309,8262,3045,13792,2829,24.51
18.289000,17741,191,8498,2253,13492,2713,24.51
18.299000,18006,511,8417,2118,13324,2599,24.49
18.309000,18195,512,8366,2096,12574,2398,24.49
18.326000,18556,368,9134,2301,11369,2811,24.48
18.336000,18688,172,9143,2259,10905,3036,24.48
18.346000,18409,-3,9084,2106,10579,3356,24.51
18.364000,17819,-528,9054,1887,10209,3915,24.49
18.374000,17672,-894,9267,1654,9871,3817,24.49
18.384000,17511,-1063,9436,1289,9527,3551,24.48
18.402000,17244,-1325,9591,469,8468,3054,24.52
18.412000,17261,-1251,9623,-124,7818,2876,24.52
18.422000,17102,-1167,9786,-508,7108,2760,24.50
18.439000,17011,-1143,9975,-949,6055,2617,24.48
18.449000,16712,-1033,10299,-1277,5657,2575,24.48
18.459000,16684,-888,10221,-1536,5204,2386,24.54
18.477000,16405,-794,10184,-2015,3665,1605,24.50
18.496000,16284,-801,10237,-2307,1916,297,24.50
18.506000,16436,-567,10040,-2556,1293,-333,24.50
18.516000,16345,-284,10068,-2723,652,-791,24.55
18.526000,16537,122,9755,-2768,-252,-1464,24.55
18.536000,16596,532,10079,-2555,-1017,-1813,24.54
18.552000,17197,565,10481,-2544,-1688,-1185,24.53
18.562000,17059,723,10703,-2510,-1759,-511,24.53
18.572000,16885,708,10493,-2716,-1746,306,24.51
18.589000,15861,604,10242,-2893,-1767,1337,24.48
18.599000,15113,158,10337,-3125,-1717,1295,24.48
18.609000,14400,-232,10175,-3412,-1625,651,24.48
18.626000,13678,-383,9628,-3346,-2384,-884,24.52
18.638000,13656,40,9013,-3051,-3212,-1747,24.47
18.648000,13691,-163,8652,-2858,-4173,-1526,24.47
18.658000,13443,246,8561,-2692,-4493,-1455,24.49
18.668000,13032,-10,8116,-2451,-4631,-1185,24.51
18.678000,12592,-83,7948,-2093,-4532,-789,24.51
18.688000,12350,-254,7614,-1668,-4105,-459,24.48
18.701000,11919,-1141,7669,-1379,-3248,-98,24.48
18.711000,11791,-1525,7780,-1436,-2503,313,24.53
18.721000,11896,-1769,8229,-1622,-1673,371,24.53
18.739000,12475,-3170,7743,-1778,-738,-206,24.52
18.749000,12707,-3289,7965,-1660,-1309,-113,24.50
18.759000,13011,-2797,8007,-1581,-1601,-812,24.50
18.777000,13524,-3018,7739,-928,-2554,-1103,24.52
18.787000,13878,-3282,7892,-402,-3175,-1363,24.47
18.797000,14183,-3765,8363,-51,-3459,-1264,24.47
18.814000,14203,-4727,8410,-391,-2778,-258,24.49
18.824000,14376,-4915,8672,-742,-2072,439,24.50
18.834000,14639,-5030,8574,-1189,-1305,976,24.50
18.852000,15143,-4874,8830,-1926,-126,1522,24.53
18.862000,15747,-4643,8827,-1975,-41,1610,24.53
18.872000,16308,-4376,8782,-1846,-750,1370,24.55
18.889000,16971,-4320,9617,-1305,-2221,623,24.52
18.899000,17174,-4373,9878,-1344,-2659,187,24.52
18.909000,17257,-4234,9770,-1623,-3205,-90,24.50
18.927000,17310,-4050,9342,-2073,-4379,-1046,24.52
18.937000,17364,-3946,9475,-2435,-4670,-1487,24.52
18.947000,17307,-3685,9242,-3027,-4512,-1666,24.50
18.964000,16896,-3146,8520,-3818,-4642,-2362,24.50
18.974000,16860,-2857,8189,-4549,-4846,-3028,24.50
18.985000,16962,-1900,7482,-4891,-5524,-4166,24.50
18.995000,16884,-1304,6979,-4634,-6517,-5659,24.50
19.039000,17674,442,4999,-1017,-9942,-8848,24.53
19.049000,18681,732,4918,-296,-11300,-9569,24.53
19.059000,19078,769,4610,656,-13487,-11301,24.47
19.076000,19462,655,3953,2743,-18555,-15190,24.53
19.086000,18854,1019,2933,3530,-20586,-17338,24.53
19.096000,18541,1221,1803,4381,-22388,-18581,24.53
19.114000,18598,1557,670,4944,-22406,-17536,24.52
19.124000,18611,2165,35,4931,-21657,-16016,24.53
19.134000,18700,2922,-222,4237,-19901,-14601,24.53
19.152000,17719,3477,-1798,3731,-17479,-10971,24.53
19.162000,17774,3494,-1849,3721,-16274,-9204,24.53
19.172000,17827,3565,-1776,3466,-15029,-6822,24.53
19.189000,17060,4297,-3197,3166,-13755,-4238,24.52
19.199000,15551,4349,-3057,3689,-14143,-3529,24.53
19.209000,15098,4276,-3465,4490,-13848,-3088,24.53
19.227000,14257,3736,-3460,5067,-13539,-2568,24.52
19.237000,13403,3683,-3168,5143,-13153,-2249,24.50
19.247000,12845,3940,-3175,5175,-12688,-2437,24.50
19.264000,12690,3842,-3299,5082,-12119,-3006,24.53
19.274000,12818,4324,-3266,5062,-12192,-3342,24.53
19.284000,12665,5017,-3360,4997,-12213,-3570,24.53
19.302000,11553,5785,-3981,5304,-12804,-4135,24.53
19.312000,10772,6149,-4139,5776,-12726,-4350,24.51
19.322000,10050,5993,-4172,6083,-12161,-4348,24.51
19.339000,8667,5961,-4785,6523,-10368,-4378,24.51
19.349000,8519,5916,-4495,6449,-9100,-3940,24.51
19.360000,8555,6121,-3963,5967,-7312,-3786,24.55
19.370000,9908,6241,-4097,5717,-6458,-4323,24.50
19.380000,10866,6154,-2996,5140,-6490,-5200,24.50
19.390000,12011,6547,-2793,4763,-6645,-6229,24.49
19.400000,13027,7051,-2685,4711,-7073,-6858,24.49
19.414000,14197,7280,-2204,4252,-8749,-6481,24.51
19.424000,14277,7984,-1641,4243,-8285,-6650,24.51
19.434000,13926,7281,-2136,4135,-8800,-6598,24.51
19.451000,12558,6058,-1768,4651,-11542,-9058,24.52
19.461000,11580,4972,-1500,4260,-11998,-10315,24.52
19.471000,10876,4142,-1230,2969,-11766,-10714,24.54
19.489000,10178,4358,-1327,-672,-8426,-10648,24.51
19.499000,9968,5267,-2746,-3007,-7045,-10019,24.51
19.509000,9253,6268,-3660,-4795,-6321,-9467,24.51
19.527000,8351,7564,-4597,-6514,-5426,-9265,24.54
19.549000,7284,9733,-5788,-6681,-2271,-7561,24.51
19.559000,7063,10485,-6179,-6239,65,-6305,24.51
19.569000,6596,11035,-6902,-5314,2452,-5041,24.53
19.579000,6342,11230,-7909,-4226,4187,-3887,24.53
19.589000,6146,10440,-7102,-3075,5613,-2784,24.52
19.602000,6130,9575,-5761,-2836,9344,-796,24.52
19.612000,4663,9052,-5498,-3286,12393,-282,24.52
19.622000,3956,8438,-4703,-3602,14202,-949,24.52
19.639000,6966,8847,-1687,-4075,16060,-1883,24.53
19.649000,10403,9191,-500,-4277,16327,-383,24.53
19.659000,13526,10874,743,-4949,15951,1862,24.53
19.677000,15310,12921,2183,-4477,18130,4124,24.52
19.687000,14941,12976,1751,-3475,18621,4540,24.52
19.697000,14456,12721,1682,-1028,19408,5390,24.52
19.714000,12512,10174,1542,315,20603,7002,24.55
19.724000,12260,9385,2361,735,21909,8790,24.54
19.734000,13313,8999,2291,977,21637,10023,24.54
19.751000,13564,8010,4045,1266,20469,11083,24.53
19.761000,14131,8624,4362,1849,19546,10157,24.51
19.771000,16259,10560,4418,3763,17322,5720,24.51
19.789000,29633,12186,4891,6577,5536,-803,24.55
19.799000,31601,13450,6870,5655,3759,1580,24.53
19.809000,27276,12283,4729,4470,5215,3821,24.53
19.826000,16314,8821,904,5008,2892,5554,24.55
19.836000,10364,7036,555,6824,1844,1928,24.55
19.846000,6709,2923,708,7134,2247,-1353,24.57
19.864000,5829,-1028,1267,3672,7675,-1655,24.53
19.874000,7049,707,1294,657,9666,-814,24.53
19.884000,9026,4437,1097,-431,10698,-2402,24.56
19.902000,16543,6375,1421,333,5881,-5194,24.54
19.912000,19918,8316,4323,160,3107,-5328,24.54
19.922000,21786,9171,5323,-189,2112,-4146,24.51
19.939000,20343,10699,4056,-1140,1197,-1905,24.53
19.949000,17358,9621,2586,-947,-664,-2394,24.53
19.959000,14393,9033,2446,85,-2534,-3372,24.53
19.977000,12427,8190,2545,948,-3042,-4974,24.54
19.987000,11996,8611,2322,886,-2265,-5541,24.54
19.997000,12010,8253,1512,806,-1407,-5324,24.53
20.014000,12071,9049,1253,770,-939,-4416,24.53
20.024000,10439,10694,3760,-64,264,-8420,24.53
20.034000,13228,6215,-150,-28,608,-3328,24.52
20.052000,12718,11594,570,-589,594,-3040,24.55
20.082000,14135,8992,2908,614,-1819,-3803,24.55
20.092000,14966,9048,2856,281,-2096,-2928,24.52
20.102000,15882,10466,2247,488,-2091,-1458,24.52
20.112000,15419,11465,1495,464,-1908,-312,24.57
20.126000,13672,11464,-281,891,-1613,1625,24.57
20.164000,12030,9406,1374,1791,1319,1966,24.54
20.174000,12980,7730,741,1390,1335,1575,24.51
20.184000,13545,7963,1105,1499,520,1331,24.51
20.201000,15689,9901,1427,1803,-1441,1559,24.57
20.211000,15182,10154,1878,2023,-2177,1624,24.54
20.221000,14165,9587,1686,2095,-2250,2060,24.54
20.277000,12620,7884,1452,700,-1107,539,24.53
20.287000,12809,8192,1241,503,-757,178,24.51
20.297000,12915,8676,676,390,-901,47,24.51
20.314000,13532,9345,1100,821,-1213,-460,24.51
20.324000,13985,9394,1126,756,-1228,-325,24.56
20.334000,14015,9420,1250,678,-972,-42,24.56
20.352000,13206,9271,769,642,-236,444,24.56
20.362000,13048,9164,466,746,-345,302,24.56
20.372000,12619,8938,701,764,-347,117,24.58
20.389000,12779,8780,1002,742,296,127,24.53
20.399000,12846,9025,812,585,395,-101,24.53
20.409000,13057,8981,911,575,87,-375,24.56
20.427000,13571,9298,829,617,-297,-252,24.55
20.437000,13919,9367,1332,662,-390,171,24.55
20.447000,14427,9351,1569,801,-147,566,24.54
20.464000,14536,8871,1778,741,-214,1104,24.55
20.474000,14374,8397,1871,513,-288,1234,24.55
20.485000,13866,8105,1676,43,-186,1251,24.55
20.495000,13546,8040,1411,-224,-172,1069,24.55
20.505000,13457,7964,1224,-306,-234,782,24.57
20.515000,13452,8252,1093,-527,-100,559,24.57
20.525000,13409,8549,546,-480,520,-410,24.56
20.539000,12949,8644,544,-633,-681,351,24.55
20.549000,12938,8738,154,-636,-554,-225,24.55
20.559000,12978,8819,291,-628,-747,-30,24.56
20.576000,13259,9437,205,-350,-798,-137,24.56
20.602000,13469,9472,930,287,-1529,-379,24.58
20.612000,13464,9353,773,241,-1114,-61,24.58
20.622000,13180,9489,451,295,-916,150,24.55
20.632000,13029,9502,467,407,-843,199,24.55
20.652000,12821,9543,588,475,-560,117,24.52
20.662000,12519,9350,344,508,-759,-182,24.53
20.672000,12297,9305,614,532,-793,-637,24.53
20.689000,11962,8812,1127,216,-805,-949,24.57
20.699000,12369,8266,1378,-33,-312,-1030,24.55
20.709000,12760,8469,1597,-240,290,-603,24.55
20.727000,13979,9124,1415,-310,136,-602,24.53
20.737000,14093,9661,1432,-300,-211,-484,24.57
20.747000,13993,9259,1898,-200,-613,-563,24.57
20.764000,14115,8081,1904,-668,-63,-472,24.57
20.774000,13786,8142,2183,-525,-442,-1780,24.55
20.784000,14139,6988,807,-542,-754,-2167,24.55
20.802000,13905,9251,770,-857,-807,-687,24.56
20.812000,13730,9344,476,-835,-888,-443,24.58
20.822000,13453,9637,414,-784,-389,-30,24.58
20.839000,10539,9241,1182,-333,-735,-996,24.59
20.851000,14081,8540,1585,-719,1014,60,24.58
20.861000,15249,10016,764,-860,990,660,24.58
20.871000,14490,9553,629,-346,-289,367,24.55
20.881000,15130,8910,793,23,-1059,805,24.55
20.891000,13932,8595,1306,200,-1545,619,24.54
20.901000,13643,8451,1329,192,-1196,685,24.54
20.914000,12721,9208,676,88,-1162,468,24.53
20.924000,12713,9461,297,145,-992,266,24.53
20.934000,12810,9654,60,223,-944,241,24.56
20.951000,12389,9415,632,510,-649,91,24.54
20.961000,12368,9376,815,474,-392,8,24.54
20.971000,12153,9308,804,351,-458,-176,24.55
20.989000,12641,9674,1119,520,-277,-124,24.56
20.999000,12815,9775,1043,640,-401,-214,24.56
21.009000,13298,9955,1227,945,-744,-341,24.53
21.027000,13388,9877,1302,734,-823,42,24.56
21.037000,13258,9789,1525,767,-605,281,24.56
21.047000,13070,9472,1350,706,-775,205,24.57
21.064000,12763,8805,1892,566,-855,68,24.54
21.074000,12713,8583,1982,389,-552,105,24.54
21.084000,13035,8795,1776,28,-325,130,24.55
21.102000,13487,9061,1635,-111,-286,-32,24.55
21.126000,13697,8998,1545,-142,-485,112,24.52
21.136000,13661,9039,1239,-254,-469,236,24.52
21.146000,13772,9064,982,-318,-472,346,24.57
21.156000,13512,9087,636,-4,-745,340,24.57
21.176000,13403,8779,689,7,-813,346,24.55
21.186000,13605,8819,756,74,-911,380,24.55
21.196000,13785,8893,952,42,-747,419,24.55
21.214000,13772,9069,646,183,-796,641,24.58
21.224000,13749,8890,700,324,-935,591,24.56
21.234000,13679,8987,814,266,-990,666,24.56
21.252000,13409,8702,1044,326,-976,639,24.57
21.262000,13292,8769,1096,214,-935,654,24.57
21.272000,13264,8761,1223,86,-1010,627,24.57
21.289000,13204,8792,1465,156,-828,528,24.57
21.299000,13297,8997,1498,111,-725,565,24.50
21.309000,13282,9033,1549,43,-651,563,24.50
21.326000,13135,9150,1605,-78,-470,682,24.58
21.336000,13176,9073,1498,-259,-451,790,24.58
21.346000,13049,9361,1399,-334,-369,885,24.56
21.402000,13102,9661,568,31,-533,272,24.55
21.412000,13108,9525,542,202,-798,-7,24.55
21.422000,13166,9263,720,404,-874,65,24.62
21.477000,13234,8652,1111,43,-423,146,24.58
21.487000,13260,8536,1047,59,-401,47,24.58
21.497000,13456,8677,1004,-83,-237,154,24.58
21.514000,13374,8788,795,-352,-374,186,24.60
21.524000,13344,8840,872,-368,-395,264,24.60
21.534000,13470,8939,808,-289,-428,210,24.54
21.551000,13705,8826,915,-30,-866,-71,24.53
21.561000,13730,8833,1179,94,-1179,-210,24.53
21.571000,13817,8514,1416,219,-1158,-207,24.53
21.589000,13270,8420,1355,2,-562,-12,24.57
21.599000,13338,8434,1120,-244,-481,84,24.57
21.609000,13249,8752,957,-325,-235,195,24.57
21.627000,13536,8998,918,-229,-304,197,24.55
21.652000,13731,8747,1481,-81,-570,198,24.55
21.662000,13671,8822,1374,-127,-537,325,24.55
21.672000,13299,8945,1356,-111,-637,283,24.55
21.682000,13427,8745,1131,-100,-623,350,24.55
21.701000,13421,8817,999,-59,-732,353,24.56
21.711000,13486,8852,1134,-71,-716,471,24.56
21.721000,13475,8719,1295,-159,-620,475,24.56
21.739000,13527,8615,1543,-178,-666,392,24.58
21.749000,13544,8643,1647,-177,-736,209,24.56
21.759000,13563,8873,1184,-262,-766,59,24.56
21.777000,13152,9109,1131,-116,-1021,-15,24.58
21.787000,13259,9016,1108,-115,-816,157,24.60
21.797000,13168,9071,1025,-129,-786,187,24.60
21.815000,13365,8792,1188,-102,-538,255,24.59
21.825000,13420,8910,1333,-124,-468,317,24.57
21.835000,13450,8939,1264,-115,-375,364,24.57
21.852000,13329,8939,1245,-13,-412,252,24.60
21.862000,13332,8903,1335,18,-494,257,24.60
21.872000,13161,8878,1291,-106,-497,241,24.58
21.889000,13343,8900,1347,3,-704,58,24.61
21.899000,13552,8945,1416,-98,-669,146,24.61
21.909000,13451,8853,1404,-91,-492,253,24.62
21.927000,13526,8628,1686,-60,-381,288,24.58
21.937000,13702,8524,1387,-128,-351,292,24.58
21.947000,13777,8640,1497,-226,-480,376,24.57
21.964000,13628,8616,1412,-280,-284,499,24.53
21.974000,13600,8811,1279,-261,-186,497,24.53
21.984000,13607,8875,959,-186,-374,379,24.56
22.002000,13577,8899,1062,94,-747,355,24.56
22.012000,13614,8572,1190,41,-841,448,24.56
22.022000,13453,8359,1320,84,-865,317,24.60
22.039000,13329,8461,1268,-146,-851,201,24.56
22.049000,13220,8559,1238,-140,-688,72,24.56
22.059000,13230,8900,1218,-91,-509,162,24.55
22.076000,13760,9169,1004,-45,-538,324,24.55
22.086000,13709,9317,989,55,-616,361,24.56
22.096000,13722,9099,1138,155,-741,478,24.56
22.114000,13561,8691,1211,231,-629,566,24.60
22.124000,13342,8478,1192,233,-728,413,24.55
22.134000,13129,8364,1339,205,-682,309,24.55
22.152000,13482,8556,1059,6,-323,306,24.58
22.171000,13262,8900,937,-73,-431,269,24.56
22.181000,13311,8932,1014,143,-392,145,24.60
22.191000,13484,8793,1169,93,-548,251,24.60
22.201000,13396,8604,1576,140,-427,182,24.58
22.211000,13594,8344,1708,97,-372,170,24.58
22.227000,13483,8384,1810,-1,-418,-141,24.62
22.237000,13504,8417,1704,-84,-434,-100,24.59
22.247000,13337,8666,1892,-80,-312,-165,24.59
22.264000,13454,8562,1868,-78,-234,-260,24.58
22.274000,13498,8744,1814,-103,-243,-255,24.57
22.284000,13605,8772,1789,-225,-317,-175,24.57
22.302000,13537,8730,1662,-249,-257,-141,24.59
22.312000,13497,8668,1700,-140,-380,-65,24.59
22.322000,13710,8734,1636,-151,-363,-90,24.58
22.339000,13574,8625,1411,-240,-215,210,24.60
22.349000,13255,8675,1455,-103,-226,163,24.60
22.360000,13810,8603,1276,-145,-349,133,24.57
22.377000,13948,8819,1169,-42,-743,76,24.60
22.387000,13628,8715,1204,57,-819,127,24.60
22.397000,13518,8503,1232,95,-832,60,24.58
22.414000,13529,8481,1481,135,-705,60,24.58
22.424000,13493,8457,1513,64,-491,75,24.58
22.434000,13502,8530,1287,13,-442,28,24.58
22.451000,13576,8671,1363,103,-520,35,24.58
22.461000,13624,8858,1306,74,-536,186,24.58
22.471000,13625,8832,1217,109,-686,193,24.58
22.489000,13719,8564,1993,164,-668,265,24.58
22.499000,13797,8363,1921,-5,-647,329,24.58
22.509000,13478,8369,1825,-69,-684,214,24.60
22.527000,13294,8389,1782,-150,-483,10,24.61
22.537000,13517,8354,1605,-222,-538,-110,24.61
22.547000,13371,8384,1789,-206,-770,-261,24.59
22.565000,13580,8706,1300,-403,-494,-175,24.59
22.575000,13507,8701,1257,-396,-562,-152,24.56
22.585000,13493,8939,1493,-104,-475,-90,24.60
22.602000,13638,8989,1475,-227,-741,-24,24.60
22.612000,13725,8958,1404,-147,-823,-63,24.59
22.622000,13585,8974,1529,-52,-978,-48,24.59
22.639000,13367,8642,1650,40,-703,-15,24.61
22.649000,13149,8600,1587,-1,-596,11,24.60
22.659000,12957,8789,1287,-57,-481,-50,24.60
22.677000,13187,9019,1316,-25,-508,-206,24.59
22.698000,13180,9130,1584,-94,-367,-62,24.59
22.708000,13196,8859,1755,-78,-364,-121,24.59
22.719000,13554,8834,1859,-106,-281,-102,24.59
22.729000,13351,8830,1887,-146,-245,-92,24.59
22.752000,13188,8861,1870,-21,-24,-111,24.60
22.762000,13301,8937,1714,-57,54,-76,24.56
22.772000,13522,9188,1659,-236,442,351,24.56
22.789000,13513,9054,1460,126,-517,-56,24.59
22.826000,13137,8414,1998,114,-521,-195,24.56
22.836000,13242,8292,2036,48,-340,-130,24.56
22.846000,13472,8560,1904,-129,-195,-132,24.60
22.864000,13609,8878,1490,-129,-319,-35,24.61
22.874000,13660,9173,1522,-83,-487,125,24.61
22.884000,13724,9216,1661,137,-644,192,24.59
22.902000,13855,8671,2157,340,-929,371,24.57
22.912000,13702,8486,2093,227,-761,406,24.57
22.922000,13550,8364,1733,196,-751,385,24.61
22.940000,13173,8408,1620,219,-677,149,24.59
22.950000,13405,8213,1586,107,-603,78,24.59
22.960000,13364,8465,1617,49,-500,-21,24.55
22.977000,13763,8874,1144,-1,-578,26,24.58
22.987000,13919,8822,1358,105,-882,45,24.58
22.997000,13899,8738,1551,140,-995,155,24.62
23.014000,13510,8457,1851,101,-827,159,24.55
23.024000,13487,8525,1703,-32,-745,201,24.55
23.034000,13462,8781,1435,4,-662,259,24.56
23.052000,13238,8744,1630,58,-883,109,24.58
23.062000,13250,8505,1809,36,-698,69,24.58
23.072000,13278,8586,1805,-33,-512,39,24.60
23.089000,13794,8987,1902,-66,-540,-52,24.60
23.099000,14027,9060,1757,-61,-648,179,24.60
23.110000,13812,9177,1940,74,-669,380,24.60
23.120000,13798,9114,1641,242,-866,477,24.61
23.130000,13391,8964,1840,284,-1032,417,24.61
23.140000,13137,8551,1723,344,-747,419,24.58
23.150000,13140,8496,1601,255,-680,412,24.58
23.164000,13133,8424,1638,266,-475,172,24.56
23.174000,13216,8489,1682,205,-360,149,24.58
23.184000,13439,8659,1389,95,-253,89,24.58
23.201000,13615,9086,1634,114,-327,239,24.62
23.224000,13363,8799,1598,331,-615,187,24.58
23.234000,13298,8452,1888,214,-568,111,24.61
23.244000,13402,8377,1809,115,-383,50,24.61
23.254000,13419,8479,1789,49,-493,-52,24.62
23.264000,13486,8309,1924,-89,-465,-89,24.62
23.277000,13453,8275,1784,-246,-407,-213,24.63
23.287000,13260,8282,1876,-328,-301,-328,24.62
23.297000,13496,8431,1725,-390,-259,-331,24.62
23.315000,13794,8953,1649,-365,-383,-303,24.64
23.325000,13839,9082,1717,-207,-362,-169,24.64
23.335000,13932,9013,1766,-35,-516,-52,24.64
23.352000,13635,8932,1779,130,-602,177,24.60
23.362000,13390,8802,1841,190,-652,170,24.60
23.372000,13326,8629,1987,261,-601,204,24.62
23.389000,13009,8524,2177,-190,-445,295,24.64
23.399000,13220,8974,1831,143,-362,439,24.64
23.409000,13252,8753,2164,100,-441,231,24.57
23.427000,13294,8817,2216,17,-400,314,24.63
23.437000,13308,8738,2064,106,-568,182,24.63
23.467000,13550,8986,1847,227,-834,317,24.60
23.477000,13396,8891,1863,305,-1070,278,24.60
23.487000,13341,8766,1914,345,-1024,229,24.57
23.502000,13384,8654,1640,430,-1149,-45,24.62
23.512000,13275,8723,1662,403,-1182,-41,24.62
23.522000,13282,8733,1666,422,-1037,-74,24.63
23.539000,13124,8918,1324,225,-614,-75,24.59
23.549000,13109,9188,1080,251,-655,-133,24.59
23.559000,13055,9098,969,391,-850,-410,24.59
23.576000,13326,8589,1405,567,-292,-153,24.62
23.586000,13512,7964,1345,242,-62,-82,24.61
23.596000,13469,8310,1576,151,-323,-63,24.61
23.652000,13647,7875,1498,-453,202,219,24.58
23.662000,12907,8105,2166,-323,417,51,24.63
23.672000,12974,9344,1875,-202,411,-830,24.63
23.764000,13309,9106,1491,-508,1032,-279,24.59
23.788000,12918,9609,1019,-170,-343,-452,24.58
23.798000,12587,9945,1061,338,-1051,-657,24.61
23.808000,12596,9691,1080,1269,-1934,-1548,24.61
23.818000,12650,9133,1548,1713,-2564,-1877,24.62
23.839000,13737,8767,2392,1467,-1846,-1417,24.62
23.849000,13937,9034,2421,1509,-1644,-1033,24.62
23.859000,14322,9172,2397,1500,-1953,-700,24.63
23.877000,13493,9874,1221,783,-3186,-310,24.62
23.887000,13174,9508,1807,1059,-3452,-587,24.62
23.897000,13306,9457,1565,1676,-3369,-355,24.63
23.914000,13744,8752,2740,1452,-2754,203,24.61
23.924000,13750,8451,3105,1015,-2024,303,24.61
23.935000,13588,8160,2999,584,-771,619,24.65
23.945000,13164,8272,2516,-36,-54,1106,24.65
23.955000,12799,8753,1835,-542,330,918,24.59
23.965000,13086,8769,1500,-693,435,907,24.59
23.975000,13185,9600,986,-635,8,798,24.60
23.989000,13202,9197,1410,-327,-411,642,24.62
23.999000,13350,9236,1626,-406,-307,996,24.62
24.009000,13447,9444,1403,-342,-287,1007,24.59
24.027000,13437,9331,1602,237,-782,634,24.58
24.037000,13492,9051,1850,311,-700,590,24.58
24.047000,13134,8789,1896,325,-567,424,24.62
24.065000,13102,8544,1654,-18,-409,274,24.62
24.075000,13129,8926,1758,-130,-209,326,24.66
24.085000,13156,8816,1590,-289,103,276,24.59
24.102000,13322,8781,1843,-306,682,266,24.59
24.112000,13734,8619,2097,42,993,650,24.60
24.122000,13848,8926,1886,87,1283,958,24.60
24.139000,13407,9150,1427,-510,328,718,24.56
24.149000,13294,9161,1269,-187,-143,512,24.65
24.159000,13153,8999,1407,68,-632,259,24.65
24.177000,13072,8607,1976,311,-947,127,24.62
24.187000,13281,8661,1733,327,-791,142,24.59
24.197000,13441,8934,1539,404,-846,139,24.59
24.214000,13324,9316,1343,1032,-1259,-250,24.62
24.224000,13406,9067,1597,1268,-1094,-192,24.61
24.234000,13622,8846,1715,1114,-867,196,24.61
24.252000,13447,8832,1760,924,-1045,442,24.58
24.262000,13514,8690,1552,794,-1071,401,24.62
24.272000,12583,8636,1784,762,-1458,6,24.62
24.289000,13145,8360,2268,410,-1235,-8,24.60
24.316000,13556,9028,1974,-30,-719,210,24.67
24.326000,13145,9018,1677,16,-585,186,24.62
24.336000,13007,8982,1619,181,-452,231,24.62
24.364000,14012,9248,1558,658,-565,549,24.60
24.374000,13728,9011,1740,702,-1031,371,24.60
24.384000,13416,8777,1790,720,-1385,241,24.62
24.402000,13171,8543,1497,565,-1148,188,24.65
24.412000,13027,8655,1153,655,-1125,114,24.65
24.422000,13021,8826,1275,756,-1106,233,24.64
24.440000,13452,9269,1173,928,-608,615,24.61
24.450000,13385,9404,1145,1094,-649,620,24.61
24.460000,13675,9083,1027,1094,-890,669,24.64
24.477000,13582,8763,1351,984,-1070,650,24.60
24.487000,13195,8428,1150,807,-1294,309,24.60
24.497000,13156,7793,1593,717,-1198,91,24.61
24.514000,12666,8089,1668,220,-1234,-622,24.65
24.524000,13016,7858,2265,355,-1002,-615,24.65
24.534000,14040,8603,2243,152,-529,-114,24.63
24.552000,14650,8856,2131,80,-348,173,24.63
24.562000,14790,8798,1867,89,-724,369,24.65
24.572000,14440,8800,1780,-26,-985,561,24.59
24.589000,13561,8410,1304,-183,-1101,480,24.59
24.599000,13177,8447,983,-377,-1169,342,24.65
24.609000,13103,8568,560,-458,-1073,312,24.65
24.627000,12731,8694,359,-594,-1325,24,24.64
24.637000,12917,8709,567,-611,-1093,27,24.62
24.647000,13186,8959,474,-606,-908,44,24.62
24.664000,13527,9347,698,-216,-752,-44,24.62
24.674000,13766,9635,805,-31,-645,388,24.59
24.684000,13850,9672,1029,164,-577,450,24.59
24.701000,13315,9451,794,475,-754,700,24.66
24.711000,13492,9237,979,587,-939,623,24.63
24.721000,13492,8944,1431,612,-979,617,24.63
24.739000,13079,8923,1385,596,-1218,329,24.62
24.749000,12855,9057,1177,615,-1393,-45,24.66
24.759000,12814,8921,1300,701,-1842,-421,24.66
24.778000,13699,8400,2302,565,-1405,129,24.64
24.815000,13691,8955,1553,-102,-1431,123,24.64
24.834000,13631,9049,957,-462,-1458,207,24.64
24.844000,13151,9313,970,-88,-1541,73,24.64
24.854000,12882,8698,748,-247,-1347,492,24.59
24.864000,12913,8671,965,-299,-1179,820,24.59
24.874000,12955,8381,1447,-519,-823,976,24.60
24.889000,13280,8821,1262,-885,12,1395,24.64
24.899000,13090,9208,788,-1055,244,1544,24.64
24.909000,13300,9571,1253,-846,670,1815,24.61
25.014000,15449,7584,2362,2414,-2337,2933,24.63
25.114000,15073,6512,-489,3022,-4938,8928,24.62
25.124000,15510,6065,-101,3228,-5893,9216,24.64
25.134000,15540,6072,539,3084,-6834,9106,24.64
25.152000,15126,4602,-20,3141,-8464,8435,24.63
25.162000,15828,4525,152,3143,-9940,8189,24.66
25.172000,16454,5383,51,3018,-10979,8046,24.66
25.190000,18577,6771,151,2148,-13364,9021,24.66
25.200000,18578,6713,-81,1536,-14113,10001,24.60
25.210000,17808,6299,-1231,1709,-15676,10463,24.60
25.227000,16088,5610,-3445,3124,-20927,9686,24.60
25.237000,15714,5458,-3086,4176,-24324,10015,24.65
25.247000,14389,5663,-432,5305,-22067,9436,24.65
25.264000,13953,2542,-2002,3032,-16679,9479,24.63
25.274000,13165,2319,-2121,1430,-14204,10483,24.63
25.284000,14349,3908,-3016,1028,-12499,12520,24.64
25.302000,15222,6891,-4143,1082,-8796,12928,24.63
25.312000,15200,7309,-4253,2279,-7831,12086,24.63
25.322000,15988,6807,-4925,3404,-6771,10726,24.64
25.339000,14614,2813,-2933,5149,-6594,9644,24.64
25.359000,19999,4157,-1610,4411,-3984,9704,24.66
25.369000,17826,3134,1279,5161,2316,13082,24.66
25.379000,20863,2400,833,4646,8234,16441,24.64
25.389000,21589,3368,1124,3750,10359,17093,24.64
25.399000,20419,2143,1942,2752,9699,15780,24.61
25.414000,19757,1298,3298,-66,7289,14875,24.63
25.424000,19434,1345,3632,-1572,5942,14157,24.63
25.434000,18683,1949,4179,-3650,6232,13853,24.67
25.451000,16925,3007,3052,-6911,10387,15344,24.61
25.461000,15607,3411,1820,-9428,13418,16790,24.61
25.471000,14087,4081,1625,-13495,17446,18952,24.65
25.489000,9449,641,1034,-18506,23716,20054,24.62
25.499000,7916,803,2571,-19798,27494,19959,24.62
25.509000,8016,844,4123,-21990,32042,18876,24.64
25.527000,8941,585,4615,-25327,32764,18517,24.60
25.537000,14808,2181,6091,-23638,32764,21746,24.60
25.547000,21168,6798,3406,-20525,31543,23009,24.58
25.565000,23234,6705,4615,-19708,25708,21896,24.58
25.575000,20285,5428,1701,-20699,24851,21745,24.62
25.585000,16675,4968,-561,-21236,22926,22831,24.62
25.602000,12224,4787,-1210,-22361,23720,26895,24.62
25.612000,10420,4555,-1730,-23427,27555,30043,24.58
25.622000,9022,5002,-3119,-24588,31184,32569,24.58
25.639000,14249,6793,-6295,-19947,27858,32764,24.65
25.649000,16017,7601,-6574,-15217,21765,32014,24.61
25.659000,16150,8328,-8338,-9983,15923,29433,24.61
25.677000,12228,10494,-10331,2954,5348,25673,24.64
25.687000,9366,10548,-11058,8602,1918,23858,24.64
25.697000,6756,10236,-10597,18964,-716,22649,24.64
25.714000,540,10411,-8415,32764,-4055,17921,24.64
25.724000,-4987,11497,-6292,32764,-4038,11803,24.62
25.734000,-11792,12645,-2418,32764,-2236,1444,24.62
25.752000,-24506,18726,6861,32764,-3789,-32640,24.63
25.762000,-26306,22366,14448,32764,-8926,-32764,24.65
25.772000,-20944,29520,24550,32764,-18860,-32764,24.65
25.789000,2534,32742,32764,32764,-31677,-32764,24.65
25.799000,19262,32742,32764,32764,-32695,-32764,24.65
25.809000,26175,32742,32764,32764,-32764,-32764,24.64
25.826000,32740,32742,32764,32764,-32764,-32764,24.65
25.836000,32740,32742,32764,19190,-32725,-32764,24.65
25.846000,32740,30908,32764,1896,-25547,-32764,24.64
25.864000,32740,17790,30931,-22050,7523,-9768,24.63
25.885000,32740,20878,23511,-32764,31699,32764,24.64
25.895000,32740,22650,23680,-32764,29055,32764,24.64
25.905000,32740,26402,24585,-32764,23350,32764,24.61
25.915000,32740,29596,23000,-32764,16923,32764,24.61
25.925000,32654,30770,15569,-32764,13180,32764,24.66
25.940000,30380,31780,18306,-32764,4310,32764,24.64
25.950000,30518,30123,18620,-32764,1175,32764,24.64
25.960000,30770,28116,19080,-32764,-967,32764,24.65
25.977000,29626,24756,18031,-32764,-3130,32764,24.62
25.987000,26651,24351,18670,-32764,-2030,32764,24.62
25.997000,21737,24789,16554,-32764,2668,32764,24.61
26.014000,10262,24628,10463,-32764,7236,32764,24.66
26.024000,2384,24917,7380,-32764,9396,32764,24.66
26.034000,-4243,23497,-109,-32764,11426,32764,24.64
26.052000,-13002,16549,-14889,-32764,8356,32764,24.64
26.062000,-15046,11938,-19382,-28223,1132,31029,24.62
26.072000,-14579,8256,-20059,-5160,-6039,18553,24.62
26.089000,-12516,4211,-12451,22026,-11029,1124,24.59
26.099000,-10857,1868,-8388,32407,-11876,-5145,24.63
26.109000,-9983,385,-2347,32764,-11916,-11224,24.63
26.127000,-11376,40,7734,32764,-4527,-28023,24.68
26.137000,-13357,2171,9364,32764,-2103,-32764,24.66
26.147000,-14531,5737,9864,32764,-3602,-32764,24.66
26.164000,-5540,18068,14311,32764,-27153,-32764,24.65
26.174000,2632,21344,23223,32764,-32764,-32764,24.65
26.184000,11708,21629,28851,32764,-32764,-32764,24.65
26.201000,26048,16335,32764,32764,-32764,-32764,24.67
26.211000,32222,14501,32764,32764,-32764,-32764,24.62
26.221000,32740,11089,32764,30946,-32743,-32764,24.62
26.240000,32740,7178,32764,5368,-11725,-15202,24.67
26.250000,32740,1100,32764,-11224,1781,11465,24.63
26.260000,32740,2403,32764,-24613,19751,32680,24.63
26.277000,16376,10469,24812,-32764,32764,32764,24.64
26.288000,7738,9808,21945,-32764,32193,32764,24.69
26.298000,6185,9740,20804,-32764,26498,32764,24.69
26.315000,6650,8264,19149,-32764,15957,32764,24.67
26.325000,9790,6994,19611,-32764,14183,32764,24.67
26.335000,11671,7345,17113,-32764,14334,32764,24.65
26.352000,10264,7374,11833,-32764,13987,32764,24.67
26.362000,7744,6901,9046,-32764,14660,32764,24.67
26.372000,4674,6659,5063,-32764,15363,32764,24.67
26.389000,-879,6863,198,-28172,14544,30767,24.63
26.411000,-7669,5540,-3940,-4733,6310,10213,24.64
26.421000,-10578,5046,-3972,7530,1248,1529,24.64
26.431000,-12300,2365,-2166,19740,-3412,-9017,24.68
26.441000,-13622,2019,1160,31197,-7154,-20640,24.68
26.451000,-12728,1615,5015,32764,-10003,-32760,24.65
26.464000,-9139,2137,10534,32764,-13573,-32764,24.61
26.474000,-4343,2902,12645,32764,-16535,-32764,24.61
26.484000,1732,4407,16457,32764,-19445,-32764,24.62
26.539000,24887,-3369,29628,15617,-1927,-18230,24.65
26.549000,21611,-4805,28894,9765,4329,-6179,24.68
26.559000,17850,-3753,28720,2128,8279,3015,24.68
26.576000,11261,-2156,25902,-11301,12556,13605,24.66
26.586000,8408,-873,23657,-17809,13514,17159,24.67
26.614000,5610,2486,18739,-22966,10932,19467,24.62
26.624000,6037,2760,17397,-22616,9455,18337,24.66
26.634000,6294,2033,17285,-21174,7422,17679,24.66
26.652000,7765,693,18277,-18257,5027,17946,24.68
26.662000,8288,-873,19514,-18131,4457,18990,24.65
26.672000,8312,-2031,22018,-18758,5411,20723,24.65
26.690000,6692,-4433,21572,-21735,7674,20858,24.64
26.700000,5125,-6338,21996,-25031,6042,21720,24.68
26.710000,5207,-8646,22172,-27791,5556,23658,24.68
26.720000,5804,-9665,22774,-32244,5897,27295,24.70
26.730000,5658,-7785,22331,-32764,7393,30715,24.70
26.740000,4453,-5504,20156,-32764,8516,31923,24.66
26.750000,2868,-3914,17592,-32764,9382,32365,24.66
26.764000,1909,-924,12353,-32764,9593,31542,24.67
26.774000,1134,807,9558,-32764,8528,30119,24.67
26.784000,-797,4179,5097,-32764,8325,26261,24.67
26.802000,-7876,10280,-7590,-19794,8276,12014,24.65
26.812000,-12121,12448,-14150,-3980,6926,3259,24.65
26.822000,-16753,15087,-18590,24147,1226,-8335,24.66
26.839000,-23843,16103,-9729,32764,-15443,-32764,24.66
26.849000,-24004,17620,-2500,32764,-24419,-32764,24.66
26.859000,-20993,22694,7513,32764,-32360,-32764,24.66
26.877000,-2165,32523,21820,32764,-32764,-32764,24.65
26.887000,11588,32737,24427,32764,-32764,-32764,24.65
26.897000,21669,32742,25391,32764,-32764,-32764,24.68
26.914000,24208,29756,28852,32764,-32764,-32764,24.67
26.937000,32740,13962,32764,16452,-3299,-28427,24.67
26.947000,32740,7668,32764,5237,1407,3073,24.67
26.957000,32741,-1703,32764,-17138,9108,31917,24.68
26.967000,32741,7023,32764,-28604,21535,32764,24.68
26.977000,23914,12245,32457,-32764,31248,32764,24.67
26.989000,14473,17261,28038,-32764,32370,32764,24.64
26.999000,15000,18505,24999,-32764,29003,32764,24.64
27.009000,16447,18979,24666,-32764,22698,32764,24.65
27.027000,15834,22221,19633,-32764,12855,32764,24.65
27.038000,12200,21606,13577,-32764,7105,32764,24.67
27.048000,7287,20241,10458,-32764,3456,32764,24.61
27.058000,2805,19450,6335,-32764,2564,32764,24.61
27.068000,-4544,19912,-1662,-32764,4557,32764,24.65
27.078000,-14477,20770,-10822,-23381,6594,26932,24.65
27.088000,-22791,19074,-18449,521,3677,10079,24.64
27.102000,-28297,13858,-18812,32764,-11118,-17916,24.64
27.112000,-27141,10772,-8502,32764,-18853,-32764,24.66
27.122000,-20824,10335,1563,32764,-29034,-32764,24.66
27.139000,-3523,11902,17786,32764,-32764,-32764,24.65
27.149000,7649,12708,23213,32764,-32764,-32764,24.69
27.159000,16615,11780,28192,32764,-32764,-32764,24.69
27.177000,30618,4089,32564,32134,-20508,-32764,24.66
27.187000,32740,506,32764,18077,-10134,-20964,24.67
27.197000,32740,-1830,32764,829,3132,6011,24.67
27.214000,32740,-2904,32764,-25296,13811,32764,24.68
27.224000,23366,1654,32764,-32764,22444,32764,24.65
27.234000,12882,5856,29889,-32764,25675,32764,24.65
27.252000,9996,13210,26745,-32764,23162,32764,24.67
27.262000,11220,15484,22279,-32764,21254,32764,24.67
27.272000,14006,16058,18353,-32764,16266,32764,24.67
27.289000,12163,19692,11879,-32764,8420,32764,24.69
27.299000,8733,19366,5263,-32764,6277,32764,24.69
27.309000,5037,18655,-2039,-32764,4093,31090,24.68
27.326000,-4609,16269,-10734,-9647,3045,19560,24.64
27.336000,-9273,13691,-11398,3188,4762,11918,24.64
27.346000,-16768,13618,-12965,24304,549,-3219,24.71
27.364000,-21673,6936,-3343,32764,-16466,-32761,24.66
27.376000,-18410,7552,7877,32764,-22946,-32764,24.66
27.386000,-11437,9064,14803,32764,-28695,-32764,24.68
27.396000,-1799,11368,20795,32764,-32764,-32764,24.68
27.406000,10868,11745,25968,32764,-32764,-32764,24.68
27.416000,20430,12031,29795,32764,-32764,-32764,24.68
27.426000,30355,8304,32294,32764,-32764,-32764,24.71
27.440000,32741,965,32764,20052,-22918,-28157,24.69
27.463000,32741,-6487,32764,-21682,17635,30668,24.69
27.473000,32503,-2385,32764,-32764,28553,32764,24.69
27.483000,20210,2938,30108,-32764,32764,32764,24.66
27.493000,14504,9255,27865,-32764,32729,32764,24.66
27.503000,12131,13994,26649,-32764,28462,32764,24.66
27.514000,11927,16705,20734,-32764,19521,32764,24.68
27.524000,12050,16085,18410,-32764,12166,32764,24.68
27.534000,11804,16445,13054,-32764,8177,32764,24.70
27.552000,5558,22149,-2269,-32764,5783,31882,24.70
27.562000,-766,24065,-12544,-29175,7389,18660,24.64
27.572000,-12289,23362,-21576,-3255,7252,5436,24.64
27.589000,-22033,17422,-15762,32764,-8494,-21241,24.65
27.599000,-20986,13589,-8142,32764,-20571,-32764,24.68
27.609000,-16101,12823,5455,32764,-32020,-32764,24.68
27.626000,1583,16682,23736,32764,-32764,-32764,24.66
27.636000,13157,17828,26763,32764,-32764,-32764,24.70
27.646000,24399,17009,28848,32764,-32764,-32764,24.70
27.664000,32741,11861,32764,32764,-32764,-32764,24.69
27.674000,32741,4749,32764,26657,-29036,-32673,24.66
27.684000,32740,-4810,32764,11039,-8503,-6201,24.66
27.702000,30564,-3007,32764,-21591,24976,32764,24.67
27.712000,21560,157,28854,-32764,32756,32764,24.68
27.723000,12299,5767,26368,-32764,32764,32764,24.68
27.733000,8847,8112,25063,-32764,32750,32764,24.71
27.743000,8680,11464,23662,-32764,28243,32764,24.71
27.753000,10605,13435,21325,-32764,23609,32764,24.70
27.763000,12833,14113,19523,-32764,18769,32764,24.70
27.777000,15583,15800,15105,-32764,12174,32764,24.69
27.787000,15789,17000,10251,-32764,9443,32764,24.69
27.797000,14814,18560,3027,-32764,7392,32748,24.70
27.814000,4928,21870,-10647,-20161,5003,15948,24.70
27.824000,-1453,19005,-14541,632,3418,10549,24.70
27.834000,-7223,15614,-13042,21232,327,3502,24.65
27.852000,-13331,8494,-4220,32764,-9602,-18674,24.70
27.862000,-12566,6876,4149,32764,-16007,-31717,24.70
27.872000,-5555,5438,12072,32764,-26469,-32764,24.70
27.890000,7407,10385,22071,32764,-32764,-32764,24.69
27.900000,15143,11310,25593,32764,-32764,-32764,24.69
27.910000,23094,9016,30230,32764,-32764,-32764,24.67
27.927000,31259,306,32764,32764,-18013,-28916,24.71
27.937000,32728,-6185,32764,19593,-7148,-12714,24.71
27.947000,32704,-9263,32764,1902,12081,14448,24.67
27.964000,25866,-5223,32764,-32718,31837,32764,24.66
27.988000,13664,3665,30067,-32764,32764,32764,24.68
27.998000,12945,7032,27162,-32764,31268,32764,24.68
28.008000,12289,9667,25999,-32764,24878,32764,24.67
28.018000,11093,10134,23253,-32764,19639,32764,24.67
28.077000,7565,14688,-9484,-17989,2540,13282,24.68
28.087000,3244,15229,-12513,-1492,2831,10698,24.69
28.097000,-1731,14843,-13425,15455,290,7722,24.69
28.114000,-9801,8559,-6385,32764,-12096,-6554,24.69
28.124000,-11639,7460,-202,32764,-18923,-12879,24.68
28.134000,-11949,10478,7271,32764,-27506,-23075,24.68
28.152000,457,12650,17002,32764,-32764,-32764,24.68
28.162000,10766,17722,21047,32764,-32764,-32764,24.71
28.172000,21431,18789,24144,32764,-32764,-32764,24.71
28.190000,32741,16674,27553,32764,-32764,-32764,24.69
28.200000,32740,14701,26020,32764,-32764,-32764,24.65
28.210000,32740,10656,27934,32764,-32764,-32764,24.65
28.227000,32741,11756,32751,32677,-32764,-25257,24.71
28.237000,31753,6693,32742,21494,-25368,-4518,24.68
28.247000,20114,5018,30856,7952,360,16289,24.68
28.265000,3103,6044,15916,-7361,28043,32764,24.71
28.275000,-2554,10210,5918,-16528,31818,32764,24.71
28.285000,-5353,11823,1900,-19416,27123,32764,24.69
28.302000,-1258,15606,1060,-9682,9742,22748,24.65
28.312000,801,15681,2906,-3086,-1019,14400,24.65
28.322000,6985,13114,6073,3943,-13529,5425,24.67
28.339000,12904,10859,12208,12625,-24825,1074,24.66
28.349000,13066,10870,13004,10807,-25567,-128,24.66
28.359000,12529,8399,15636,9111,-19854,-149,24.71
28.377000,10476,8341,11965,2497,-6282,5639,24.66
28.387000,9861,8454,10653,-586,-2580,9892,24.66
28.397000,9429,10026,9667,-1613,-1113,12497,24.73
28.414000,8648,10588,9217,-1426,-3393,8227,24.69
28.424000,9003,9779,8000,-649,-5537,3912,24.69
28.434000,9713,8409,6716,-130,-10514,-600,24.68
28.452000,9549,8276,8572,1558,-17743,-2726,24.68
28.462000,11841,8768,8734,1400,-17487,-3100,24.68
28.472000,13590,9552,9061,921,-15211,-2254,24.64
28.489000,15212,11247,7101,-316,-10773,1674,24.70
28.509000,14483,10866,6336,-1648,-5784,5720,24.59
28.519000,14335,11846,5896,-2486,-3503,7496,24.59
28.529000,17789,13633,5463,-2244,-2346,7424,24.69
28.539000,18544,13071,5484,-2659,-2251,4456,24.69
28.549000,15828,9668,4674,-711,-1501,4362,24.72
28.565000,11969,5267,2064,728,-1388,6126,24.72
28.575000,12438,6393,2208,1468,-2544,3416,24.66
28.585000,14609,8872,4596,2435,-4104,52,24.66
28.602000,13781,8640,4263,4743,-5507,1476,24.69
28.612000,13266,8714,4074,5881,-6250,2372,24.68
28.622000,12382,8097,4355,6393,-7281,1956,24.68
28.640000,13556,6840,3330,7978,-10507,-310,24.67
28.650000,14218,6193,2397,9238,-12391,-1747,24.68
28.660000,14821,3267,-34,9847,-13126,-5445,24.68
28.677000,17205,6289,182,7013,-10858,-5304,24.69
28.687000,15182,8142,604,3146,-9232,-4062,24.69
28.697000,12414,12253,1166,1609,-8615,-1812,24.69
28.714000,10497,14153,809,2541,-5672,-1540,24.69
28.724000,11719,13547,-2112,2497,-4147,-625,24.67
28.734000,13525,12263,-3113,2304,-2254,2309,24.67
28.752000,13214,9918,-4301,797,1716,3949,24.69
28.762000,11409,7823,-3404,302,1654,2618,24.69
28.772000,11299,6438,-2560,203,624,295,24.64
28.789000,14163,6735,241,660,-2538,-4192,24.67
28.799000,16567,7391,983,931,-2700,-3597,24.67
28.809000,16964,6985,1559,557,-2352,-2530,24.66
28.827000,15263,7881,2718,-21,-1196,872,24.69
28.837000,13637,8219,1918,-98,-1206,1278,24.69
28.847000,12766,8826,833,-64,-1510,558,24.67
28.864000,13984,10175,-1263,204,-690,1410,24.70
28.874000,14306,9999,-2126,441,554,2818,24.70
28.884000,13552,9583,-2180,649,872,4133,24.67
28.902000,13013,8472,-2180,1812,-418,3816,24.68
28.912000,13454,8080,-1355,2147,-1085,2795,24.68
28.922000,14586,7699,-1137,2060,-1563,2297,24.73
28.940000,14718,8352,-829,1254,-2387,2246,24.67
28.950000,14401,8533,-990,836,-2337,2309,24.67
28.960000,13708,8842,-604,825,-2199,1894,24.70
28.977000,13936,7915,-1306,931,-2254,820,24.68
28.987000,13905,7861,675,1203,-1695,629,24.68
28.997000,14739,7451,42,1138,-1077,243,24.67
29.015000,16006,7191,-361,576,-2427,1624,24.67
29.034000,15420,8282,-866,-505,-3277,2530,24.69
29.044000,13870,7473,-1095,-800,-4166,1076,24.69
29.054000,12027,7235,-1370,-690,-4930,-34,24.69
29.064000,11455,6878,-2095,-380,-4785,-404,24.68
29.074000,11871,6865,-2754,-1355,-4099,-757,24.68
29.089000,11742,7699,-3540,-2728,-2195,-764,24.68
29.099000,11551,8107,-4062,-2750,-1399,-1076,24.70
29.109000,10764,8119,-3892,-2540,-1388,-1269,24.70
29.127000,12288,8697,1094,-2873,734,-1011,24.66
29.137000,13408,7687,2852,-3910,4422,-363,24.73
29.147000,13640,5725,2359,-5723,6629,743,24.73
29.164000,15524,6007,999,-7163,5613,1283,24.67
29.174000,17530,8186,-666,-7351,2752,775,24.72
29.184000,19316,9534,-963,-6887,-3854,-86,24.72
29.202000,19010,9138,2152,-3915,-6022,2562,24.72
29.212000,16634,7685,793,-5338,-5691,4049,24.71
29.222000,13979,7874,-393,-5779,-6457,4763,24.71
29.239000,12706,8309,-681,-5555,-8731,2181,24.72
29.249000,14081,8398,-948,-4946,-9229,2160,24.71
29.259000,15125,8769,-148,-4764,-9107,2998,24.71
29.277000,16434,8687,807,-5945,-5699,5984,24.68
29.287000,16363,8200,805,-6998,-3816,7941,24.68
29.297000,16744,7643,339,-7934,-2482,10452,24.70
29.315000,18791,9662,226,-8737,198,16100,24.73
29.325000,18810,10999,-1169,-9613,2402,18706,24.73
29.335000,17968,10166,-2335,-9599,3340,19332,24.72
29.352000,13976,8584,-2941,-7580,54,17584,24.67
29.362000,12927,7291,-2669,-5525,-1380,16506,24.67
29.372000,12952,4765,-1499,-4420,-3384,14935,24.70
29.390000,15118,4194,286,-3789,-2751,15160,24.70
29.400000,16450,3204,536,-5085,-2176,15960,24.70
29.410000,18095,3105,1147,-5493,-1951,17874,24.71
29.427000,20022,4015,1108,-8280,-924,21381,24.69
29.437000,19172,3526,2187,-9796,595,22643,24.69
29.447000,17764,3546,1202,-11146,2596,23318,24.69
29.464000,16053,2433,-196,-12916,2335,22487,24.73
29.474000,15415,1717,188,-12562,1312,21753,24.73
29.484000,15027,1461,229,-12053,324,20823,24.69
29.502000,14282,-504,-350,-11761,-1226,19244,24.71
29.512000,13201,-2171,-132,-12251,-2528,18357,24.71
29.522000,12185,-3063,-81,-13284,-2911,17206,24.71
29.539000,11386,-3446,-113,-16219,1950,17219,24.69
29.562000,12029,-3067,-1392,-20472,10371,19613,24.73
29.572000,12643,-2146,-1969,-21239,16040,21002,24.73
29.582000,12966,-2010,-2597,-21580,20278,22539,24.72
29.592000,12764,-1880,-2827,-21061,24459,25569,24.72
29.602000,12171,-2249,-2559,-20022,28302,28693,24.69
29.614000,12554,-3698,-786,-17927,31153,31810,24.69
29.624000,10988,-4356,625,-15943,31916,32755,24.73
29.634000,9505,-6474,2473,-13820,30972,32358,24.73
29.652000,5076,-9715,5010,-9252,27125,22066,24.72
29.662000,2428,-11380,4645,-6135,21658,11439,24.71
29.672000,1025,-13022,5343,-1727,13125,-1987,24.71
29.690000,4927,-11001,5169,9515,-5624,-26577,24.69
29.700000,9515,-6921,3610,14653,-16113,-32764,24.75
29.710000,13714,-4522,1841,18117,-25685,-32764,24.75
29.727000,19160,-936,482,23250,-32764,-32764,24.73
29.737000,20156,-439,-159,25135,-32764,-32764,24.69
29.747000,20922,-286,-797,25829,-32764,-32764,24.69
29.765000,21992,1248,-2764,22937,-32764,-32764,24.70
29.775000,22474,1826,-2900,20830,-32764,-32764,24.70
29.785000,23442,1954,-2676,19204,-32764,-32764,24.72
29.802000,22266,2216,-2411,14001,-29783,-29760,24.75
29.812000,21589,2038,-2663,9853,-23330,-21018,24.75
29.822000,20606,1975,-3116,5481,-16947,-8998,24.70
29.839000,18668,2315,-2690,-1470,-1790,9036,24.68
29.849000,17890,2606,-2808,-5635,4094,15832,24.68
29.859000,16442,3179,-3438,-9076,10589,22120,24.71
29.877000,16845,2771,-2941,-13493,17150,30817,24.73
29.887000,17098,2874,-2377,-14861,19532,32764,24.73
29.897000,17179,2224,-1641,-16514,22131,32764,24.73
29.907000,17014,1013,-1745,-17420,24309,32764,24.73
29.917000,16291,46,-1589,-17774,25401,32764,24.73
29.927000,15240,-497,-1679,-18179,26531,32764,24.73
29.937000,13934,-1415,-1797,-18572,26707,32764,24.70
29.952000,12247,-2577,-1913,-17410,24960,32764,24.73
29.962000,11429,-3074,-2327,-16548,22508,32762,24.73
29.972000,11269,-3446,-2300,-14430,19427,28591,24.68
29.989000,12338,-4520,-2438,-10593,12748,19434,24.71
29.999000,13339,-5118,-2292,-7753,8972,15359,24.71
30.009000,14571,-5051,-1829,-5528,5459,12545,24.71
30.027000,16240,-4559,-1229,-2222,495,7430,24.70
30.037000,16221,-5070,-1101,-203,-897,5867,24.72
30.047000,15826,-5465,-610,1523,-1638,4730,24.72
30.065000,14309,-6614,301,3970,-1109,2385,24.69
30.086000,12739,-8397,-250,5408,-2371,-171,24.71
30.096000,12408,-8710,195,5239,-3174,-1370,24.67
30.106000,12287,-8775,922,4777,-3544,-2832,24.67
30.116000,12555,-8563,985,4834,-4223,-4653,24.70
30.126000,12978,-8236,1258,5212,-5589,-6412,24.71
30.140000,14290,-7485,1911,5446,-7617,-8820,24.71
30.150000,14877,-7207,2322,5426,-8505,-10078,24.76
30.160000,15000,-6721,2316,5244,-8866,-10899,24.76
30.177000,14405,-5783,1085,4892,-8952,-12190,24.69
30.187000,13447,-5312,647,4989,-9932,-13835,24.72
30.197000,12545,-5238,353,5505,-10950,-16336,24.72
30.214000,11507,-5254,793,5698,-9173,-17482,24.75
30.224000,11486,-5349,684,4937,-7696,-17180,24.72
30.235000,11466,-5722,973,4018,-5735,-16358,24.72
30.252000,12403,-7788,2924,1335,-3217,-12980,24.75
30.262000,13816,-8927,3893,-1989,-2268,-9472,24.75
30.272000,16421,-9575,5520,-3597,216,-4976,24.72
30.289000,21183,-10073,9761,-8626,6617,7028,24.71
30.299000,23874,-10601,10880,-12715,12292,12809,24.71
30.309000,26141,-10513,11389,-16841,18751,21174,24.71
30.327000,25655,-5875,10435,-24772,28397,27329,24.69
30.337000,23901,-8766,6971,-26009,27743,30142,24.69
30.347000,18522,-8700,6340,-25623,27183,32764,24.71
30.364000,18406,-8203,2149,-24143,26481,32764,24.74
30.374000,16521,-6171,-867,-20863,19251,28096,24.74
30.384000,11503,-4456,-4406,-16497,9223,18718,24.72
30.402000,4713,-7842,-2494,-7547,-12620,-6314,24.73
30.412000,3993,-7549,-2370,-2494,-16706,-15350,24.73
30.422000,7680,-6592,-4206,2554,-22726,-22920,24.67
30.440000,14771,-3434,-4608,6753,-30694,-30556,24.72
30.477000,16464,-2905,-2488,11068,-29258,-32764,24.73
30.515000,16567,-7258,-1148,-1058,-9571,-15769,24.73
30.525000,20014,-7808,2792,-3558,-7407,-8578,24.72
30.535000,21861,-6628,3885,-6835,-2008,-2269,24.69
30.552000,24766,-4395,-253,-8501,1839,10003,24.69
30.562000,24534,-2152,-1711,-9618,4440,16889,24.74
30.572000,23293,-1052,-4252,-11484,5053,23929,24.74
30.589000,16498,-1028,-4121,-9613,1867,23410,24.75
30.612000,12712,-3108,-3229,-7492,-1737,19878,24.74
30.622000,12241,-3739,-1852,-11404,1965,18648,24.72
30.632000,10599,-6457,976,-14592,6005,17616,24.72
30.643000,9131,-7487,-1738,-14646,4961,15306,24.72
30.653000,7833,-6055,-4729,-14101,2887,13603,24.69
30.663000,7466,-4295,-5891,-10989,-2954,9614,24.69
30.673000,8194,-3069,-3735,-7564,-4174,5529,24.74
30.683000,9037,-3067,-1965,-5640,-2618,1451,24.74
30.702000,10677,-11554,3330,-11104,5866,621,24.74
30.712000,12886,-8839,-67,-7786,9467,5088,24.70
30.722000,13922,-7418,-3260,-2456,8383,7929,24.70
30.739000,18821,-2145,-4948,-2905,10623,13418,24.74
30.749000,20622,-888,-5657,-3370,10562,12823,24.74
30.759000,21553,-1714,-6445,67,5855,10170,24.71
30.777000,14252,-6186,-3318,1789,50,7947,24.75
30.787000,13133,-2417,-10440,3786,-708,7540,24.75
30.797000,9841,-2950,-4771,4837,-3310,4381,24.75
30.815000,10545,-7032,-4174,8032,5669,3184,24.73
30.825000,9136,-11080,-2864,9537,8510,8197,24.73
30.835000,8241,-9411,2968,10939,11696,9742,24.70
30.852000,14835,-13958,4061,16523,24583,5733,24.74
30.862000,16143,-15821,2472,15297,18053,7514,24.74
30.872000,13815,-7978,2564,16729,17681,3364,24.71
30.890000,9625,-12123,-6130,19659,8935,154,24.74
30.900000,10900,-13837,-2978,19309,7437,-4492,24.74
30.910000,14407,-10424,-143,17472,5780,-2436,24.75
30.927000,15440,-5980,4353,14552,6417,6148,24.72
30.937000,10092,-9258,1958,24050,8404,1202,24.72
30.947000,12938,-11596,4939,25145,5779,8122,24.71
30.964000,20145,-21358,3536,32764,22262,-15371,24.76
30.974000,20832,-13090,1203,32764,32764,-16472,24.76
30.984000,5994,-8118,-208,32764,32764,-11486,24.70
31.002000,9947,-5717,10429,32764,32764,-20375,24.70
31.012000,13626,-8403,9272,32764,29536,-20621,24.77
31.022000,10446,-1373,15274,32764,26400,-16276,24.77
31.039000,9120,3523,11886,32764,18118,-17043,24.76
31.049000,8059,3205,13994,32764,13366,-16496,24.74
31.059000,8311,4124,14692,32339,8213,-15118,24.74
31.077000,9068,8377,12490,18102,-5145,-13593,24.72
31.087000,5589,11885,14955,5649,-12733,-12066,24.73
31.097000,5296,13096,15157,-6646,-19529,-7022,24.73
31.114000,5304,12505,16782,-30251,-28816,4382,24.75
31.138000,7967,8419,17668,-32764,-32764,18175,24.68
31.148000,10609,4554,16493,-32764,-32764,21190,24.72
31.158000,13717,746,13851,-32764,-32764,22111,24.72
31.168000,15135,-2619,12162,-32764,-32764,21441,24.73
31.178000,15908,-4329,11858,-32764,-32764,22436,24.73
31.190000,14653,-3165,9063,-32764,-32764,25241,24.75
31.200000,14057,-2006,8112,-32764,-32764,28144,24.69
31.210000,13703,-1787,7265,-32764,-32764,31618,24.69
31.227000,13111,-1907,4414,-32764,-32764,32764,24.76
31.237000,12117,-1919,3591,-32764,-32764,32764,24.76
31.247000,11006,-2386,1362,-32764,-32764,29797,24.75
31.265000,6670,-755,-3636,-29067,-32764,20302,24.76
31.275000,3537,-1438,-7263,-21969,-32764,15600,24.76
31.285000,1696,-3158,-10840,-15283,-32764,12025,24.75
31.302000,-1387,-7129,-18009,-8055,-27503,7677,24.74
31.312000,-2308,-9127,-20024,-7014,-19626,6169,24.74
31.322000,-2015,-10594,-20971,-6803,-12689,4165,24.74
31.339000,568,-12651,-19160,-2510,-1057,-3481,24.71
31.352000,2224,-13145,-18775,3379,6113,-8851,24.71
31.362000,2982,-12742,-19128,8945,10934,-14076,24.73
31.377000,1869,-12784,-20372,19518,23880,-22682,24.73
31.387000,2097,-14198,-21287,23071,31738,-26340,24.73
31.397000,3936,-15486,-20959,26062,32764,-28897,24.76
31.414000,5716,-15121,-17016,26443,32764,-32590,24.74
31.424000,6567,-13387,-14375,27187,32764,-32764,24.74
31.434000,7681,-11249,-11215,29240,32764,-32764,24.75
31.452000,7541,-5313,-5866,32764,32764,-32764,24.69
31.462000,7850,-2231,-3175,32764,32764,-32764,24.69
31.472000,8440,-504,-201,32764,32764,-32764,24.73
31.489000,11020,-1471,3961,32764,32764,-32644,24.71
31.499000,14216,-2920,4316,32764,32764,-22456,24.71
31.509000,16421,601,8874,32764,32764,-20973,24.71
31.527000,16377,4394,12606,32764,32764,-21800,24.74
31.537000,15776,5557,12378,32764,31474,-17443,24.73
31.547000,15572,6432,11747,32510,26717,-14320,24.73
31.565000,12382,4176,12161,30049,27559,-12243,24.75
